view_history,rt,trial_type,trial_index,trial_number,time_elapsed,internal_node_id,subject,category,typicality_condition,image_name,full_image_name,nameability,responses,typicality_rating
"[{""page_index"":0,""viewing_time"":8487}]",8488,instructions,0,NA,8522,0.0-0.0,p111327,NA,NA,,NA,NA,,NA
,4485,survey-likert,1,1,13010,0.0-1.0,p111327,cat,typical,britishshorthair,britishshorthair_600x600.jpg,0.9,"{""Q0"":3}",4
,2554,survey-likert,2,2,15581,0.0-2.0,p111327,cat,typical,burmese,burmese_600x600.jpg,0.931034482758621,"{""Q0"":2}",3
,4636,survey-likert,3,3,20234,0.0-3.0,p111327,cat,atypical,siamese,siamese_600x600.jpg,0.848484848484849,"{""Q0"":1}",2
,12020,survey-likert,4,4,32271,0.0-4.0,p111327,cat,typical,arabianmau,arabianmau_600x600.jpg,0.9,"{""Q0"":2}",3
,2959,survey-likert,5,5,35247,0.0-5.0,p111327,cat,atypical,siberian,siberian_600x600.jpg,0.878787878787879,"{""Q0"":2}",3
,3049,survey-likert,6,6,38313,0.0-6.0,p111327,cat,atypical,exotic,exotic_600x600.jpg,0.878787878787879,"{""Q0"":1}",2
,3215,survey-likert,7,7,41543,0.0-7.0,p111327,cat,atypical,sphynx,sphynx_600x600.jpg,0.588235294117647,"{""Q0"":0}",1
,2991,survey-likert,8,8,44550,0.0-8.0,p111327,cat,atypical,americancurl,americancurl_600x600.jpg,0.9375,"{""Q0"":3}",4
,2218,survey-likert,9,9,46783,0.0-9.0,p111327,cat,typical,chartreux,chartreux_600x600.jpg,0.793103448275862,"{""Q0"":2}",3
,2965,survey-likert,10,10,49764,0.0-10.0,p111327,cat,atypical,oriental,oriental_600x600.jpg,0.909090909090909,"{""Q0"":0}",1
,2743,survey-likert,11,11,52523,0.0-11.0,p111327,cat,atypical,cornishrex,cornishrex_600x600.jpg,0.848484848484849,"{""Q0"":0}",1
,4303,survey-likert,12,12,56843,0.0-12.0,p111327,cat,typical,tabby,tabby_600x600.jpg,1,"{""Q0"":4}",5
,2087,survey-likert,13,13,58945,0.0-13.0,p111327,cat,typical,egyptianmau,egyptianmau_600x600.jpg,0.793103448275862,"{""Q0"":3}",4
,2842,survey-likert,14,14,61803,0.0-14.0,p111327,cat,typical,shorthair_calico,shorthair_calico_600x600.jpg,0.758620689655172,"{""Q0"":2}",3
,2434,survey-likert,15,15,64253,0.0-15.0,p111327,cat,atypical,sandcat,sandcat_600x600.jpg,0.823529411764706,"{""Q0"":1}",2
,2108,survey-likert,16,16,66377,0.0-16.0,p111327,cat,typical,bengal,bengal_600x600.jpg,0.833333333333333,"{""Q0"":2}",3
,1923,survey-likert,17,17,68316,0.0-17.0,p111327,cat,typical,toyger,toyger_600x600.jpg,0.933333333333333,"{""Q0"":3}",4
"[{""page_index"":0,""viewing_time"":3954}]",3954,instructions,18,NA,72286,0.0-18.0,p111327,NA,NA,,NA,NA,,NA
,4605,survey-likert,19,18,76893,0.0-19.0,p111327,fish,atypical,stingray,stingray_600x600.jpg,0.448275862068966,"{""Q0"":1}",2
,2464,survey-likert,20,19,79372,0.0-20.0,p111327,fish,atypical,seahorse,seahorse_600x600.jpg,0.8,"{""Q0"":1}",2
,3082,survey-likert,21,20,82471,0.0-21.0,p111327,fish,typical,clownfish,clownfish_600x600.jpg,0.65625,"{""Q0"":3}",4
,1932,survey-likert,22,21,84418,0.0-22.0,p111327,fish,atypical,sturgeon,sturgeon_600x600.jpg,0.633333333333333,"{""Q0"":2}",3
,3783,survey-likert,23,22,88219,0.0-23.0,p111327,fish,typical,angelfish,angelfish_600x600.jpg,0.823529411764706,"{""Q0"":1}",2
,3262,survey-likert,24,23,91497,0.0-24.0,p111327,fish,atypical,salmon,salmon_600x600.jpg,0.7,"{""Q0"":4}",5
,2391,survey-likert,25,24,93905,0.0-25.0,p111327,fish,atypical,catfish,catfish_600x600.jpg,0.666666666666667,"{""Q0"":0}",1
,2456,survey-likert,26,25,96376,0.0-26.0,p111327,fish,atypical,betafish,betafish_600x600.jpg,0.551724137931034,"{""Q0"":0}",1
,2100,survey-likert,27,26,98494,0.0-27.0,p111327,fish,typical,koi,koi_600x600.jpg,0.393939393939394,"{""Q0"":1}",2
,2029,survey-likert,28,27,100543,0.0-28.0,p111327,fish,atypical,lionfish,lionfish_600x600.jpg,0.785714285714286,"{""Q0"":0}",1
,3306,survey-likert,29,28,103864,0.0-29.0,p111327,fish,typical,bluegill,bluegill_600x600.jpg,0.882352941176471,"{""Q0"":3}",4
,3402,survey-likert,30,29,107287,0.0-30.0,p111327,fish,typical,goldfish,goldfish_600x600.jpg,0.515151515151515,"{""Q0"":0}",1
,2611,survey-likert,31,30,109915,0.0-31.0,p111327,fish,atypical,cuttlefish,cuttlefish_600x600.jpg,0.6,"{""Q0"":0}",1
,2980,survey-likert,32,31,112910,0.0-32.0,p111327,fish,typical,bass,bass_600x600.jpg,0.90625,"{""Q0"":1}",2
,2518,survey-likert,33,32,115444,0.0-33.0,p111327,fish,atypical,pufferfish,pufferfish_600x600.jpg,0.344827586206897,"{""Q0"":1}",2
,2633,survey-likert,34,33,118094,0.0-34.0,p111327,fish,typical,bluetang,bluetang_600x600.jpg,0.764705882352941,"{""Q0"":0}",1
,2651,survey-likert,35,34,120761,0.0-35.0,p111327,fish,typical,sergeantmajor,sergeantmajor_600x600.jpg,0.939393939393939,"{""Q0"":1}",2
"[{""page_index"":0,""viewing_time"":17000}]",17001,instructions,0,NA,17005,0.0-0.0,p129425,NA,NA,,NA,NA,,NA
,19615,survey-likert,1,1,36621,0.0-1.0,p129425,cat,atypical,cornishrex,cornishrex_600x600.jpg,0.848484848484849,"{""Q0"":1}",2
,2513,survey-likert,2,2,39135,0.0-2.0,p129425,cat,typical,arabianmau,arabianmau_600x600.jpg,0.9,"{""Q0"":3}",4
,3697,survey-likert,3,3,42834,0.0-3.0,p129425,cat,typical,egyptianmau,egyptianmau_600x600.jpg,0.793103448275862,"{""Q0"":1}",2
,3296,survey-likert,4,4,46131,0.0-4.0,p129425,cat,atypical,oriental,oriental_600x600.jpg,0.909090909090909,"{""Q0"":0}",1
,3339,survey-likert,5,5,49471,0.0-5.0,p129425,cat,typical,burmese,burmese_600x600.jpg,0.931034482758621,"{""Q0"":3}",4
,3489,survey-likert,6,6,52961,0.0-6.0,p129425,cat,typical,britishshorthair,britishshorthair_600x600.jpg,0.9,"{""Q0"":3}",4
,2575,survey-likert,7,7,55538,0.0-7.0,p129425,cat,atypical,sphynx,sphynx_600x600.jpg,0.588235294117647,"{""Q0"":0}",1
,3636,survey-likert,8,8,59176,0.0-8.0,p129425,cat,typical,toyger,toyger_600x600.jpg,0.933333333333333,"{""Q0"":1}",2
,2746,survey-likert,9,9,61923,0.0-9.0,p129425,cat,atypical,siberian,siberian_600x600.jpg,0.878787878787879,"{""Q0"":2}",3
,2660,survey-likert,10,10,64584,0.0-10.0,p129425,cat,typical,bengal,bengal_600x600.jpg,0.833333333333333,"{""Q0"":1}",2
,4349,survey-likert,11,11,68935,0.0-11.0,p129425,cat,atypical,exotic,exotic_600x600.jpg,0.878787878787879,"{""Q0"":2}",3
,2740,survey-likert,12,12,71677,0.0-12.0,p129425,cat,atypical,siamese,siamese_600x600.jpg,0.848484848484849,"{""Q0"":3}",4
,2321,survey-likert,13,13,74000,0.0-13.0,p129425,cat,atypical,americancurl,americancurl_600x600.jpg,0.9375,"{""Q0"":3}",4
,2450,survey-likert,14,14,76452,0.0-14.0,p129425,cat,typical,tabby,tabby_600x600.jpg,1,"{""Q0"":4}",5
,2208,survey-likert,15,15,78662,0.0-15.0,p129425,cat,typical,shorthair_calico,shorthair_calico_600x600.jpg,0.758620689655172,"{""Q0"":4}",5
,2693,survey-likert,16,16,81356,0.0-16.0,p129425,cat,typical,chartreux,chartreux_600x600.jpg,0.793103448275862,"{""Q0"":2}",3
,3608,survey-likert,17,17,84965,0.0-17.0,p129425,cat,atypical,sandcat,sandcat_600x600.jpg,0.823529411764706,"{""Q0"":0}",1
"[{""page_index"":0,""viewing_time"":3405}]",3406,instructions,18,NA,88372,0.0-18.0,p129425,NA,NA,,NA,NA,,NA
,2754,survey-likert,19,18,91128,0.0-19.0,p129425,fish,typical,bass,bass_600x600.jpg,0.90625,"{""Q0"":3}",4
,2200,survey-likert,20,19,93330,0.0-20.0,p129425,fish,atypical,salmon,salmon_600x600.jpg,0.7,"{""Q0"":3}",4
,3109,survey-likert,21,20,96440,0.0-21.0,p129425,fish,atypical,pufferfish,pufferfish_600x600.jpg,0.344827586206897,"{""Q0"":0}",1
,2180,survey-likert,22,21,98621,0.0-22.0,p129425,fish,atypical,sturgeon,sturgeon_600x600.jpg,0.633333333333333,"{""Q0"":1}",2
,1834,survey-likert,23,22,100456,0.0-23.0,p129425,fish,atypical,lionfish,lionfish_600x600.jpg,0.785714285714286,"{""Q0"":0}",1
,1926,survey-likert,24,23,102383,0.0-24.0,p129425,fish,atypical,betafish,betafish_600x600.jpg,0.551724137931034,"{""Q0"":1}",2
,2149,survey-likert,25,24,104533,0.0-25.0,p129425,fish,typical,sergeantmajor,sergeantmajor_600x600.jpg,0.939393939393939,"{""Q0"":4}",5
,2351,survey-likert,26,25,106886,0.0-26.0,p129425,fish,atypical,catfish,catfish_600x600.jpg,0.666666666666667,"{""Q0"":2}",3
,1986,survey-likert,27,26,108874,0.0-27.0,p129425,fish,typical,goldfish,goldfish_600x600.jpg,0.515151515151515,"{""Q0"":3}",4
,2146,survey-likert,28,27,111022,0.0-28.0,p129425,fish,typical,bluegill,bluegill_600x600.jpg,0.882352941176471,"{""Q0"":4}",5
,2349,survey-likert,29,28,113373,0.0-29.0,p129425,fish,typical,angelfish,angelfish_600x600.jpg,0.823529411764706,"{""Q0"":3}",4
,2108,survey-likert,30,29,115483,0.0-30.0,p129425,fish,atypical,stingray,stingray_600x600.jpg,0.448275862068966,"{""Q0"":1}",2
,1861,survey-likert,31,30,117346,0.0-31.0,p129425,fish,typical,koi,koi_600x600.jpg,0.393939393939394,"{""Q0"":2}",3
,2050,survey-likert,32,31,119398,0.0-32.0,p129425,fish,typical,bluetang,bluetang_600x600.jpg,0.764705882352941,"{""Q0"":3}",4
,2984,survey-likert,33,32,122383,0.0-33.0,p129425,fish,typical,clownfish,clownfish_600x600.jpg,0.65625,"{""Q0"":3}",4
,2093,survey-likert,34,33,124478,0.0-34.0,p129425,fish,atypical,seahorse,seahorse_600x600.jpg,0.8,"{""Q0"":0}",1
,5268,survey-likert,35,34,129748,0.0-35.0,p129425,fish,atypical,cuttlefish,cuttlefish_600x600.jpg,0.6,"{""Q0"":0}",1
"[{""page_index"":0,""viewing_time"":4271}]",4272,instructions,0,NA,4307,0.0-0.0,p164631,NA,NA,,NA,NA,,NA
,6605,survey-likert,1,1,10919,0.0-1.0,p164631,bird,atypical,puffin,puffin_600x600.jpg,0.296296296296296,"{""Q0"":2}",3
,4220,survey-likert,2,2,15142,0.0-2.0,p164631,bird,typical,cedarwaxwing,cedarwaxwing_600x600.jpg,0.72,"{""Q0"":4}",5
,3605,survey-likert,3,3,18750,0.0-3.0,p164631,bird,typical,parrot,parrot_600x600.jpg,0.481481481481481,"{""Q0"":4}",5
,4333,survey-likert,4,4,23086,0.0-4.0,p164631,bird,atypical,peacock,peacock_600x600.jpg,0.769230769230769,"{""Q0"":4}",5
,4335,survey-likert,5,5,27425,0.0-5.0,p164631,bird,atypical,owl,owl_600x600.jpg,0.88,"{""Q0"":3}",4
,4602,survey-likert,6,6,32030,0.0-6.0,p164631,bird,typical,cardinal,cardinal_600x600.jpg,0.407407407407407,"{""Q0"":2}",3
,4405,survey-likert,7,7,36438,0.0-7.0,p164631,bird,atypical,vulture,vulture_600x600.jpg,0.5,"{""Q0"":1}",2
,4772,survey-likert,8,8,41214,0.0-8.0,p164631,bird,atypical,toucan,toucan_600x600.jpg,0.703703703703704,"{""Q0"":3}",4
,2750,survey-likert,9,9,43966,0.0-9.0,p164631,bird,typical,seagull,seagull_600x600.jpg,0.62962962962963,"{""Q0"":4}",5
,3460,survey-likert,10,10,47430,0.0-10.0,p164631,bird,atypical,kookaburra,kookaburra_600x600.jpg,0.814814814814815,"{""Q0"":2}",3
,7301,survey-likert,11,11,54734,0.0-11.0,p164631,bird,atypical,turkey,turkey_600x600.jpg,0.769230769230769,"{""Q0"":2}",3
,4213,survey-likert,12,12,58950,0.0-12.0,p164631,bird,typical,sparrow,sparrow_600x600.jpg,0.703703703703704,"{""Q0"":3}",4
,3093,survey-likert,13,13,62046,0.0-13.0,p164631,bird,atypical,pelican,pelican_600x600.jpg,0.444444444444444,"{""Q0"":2}",3
,2525,survey-likert,14,14,64575,0.0-14.0,p164631,bird,typical,falcon,falcon_600x600.jpg,0.346153846153846,"{""Q0"":3}",4
,5283,survey-likert,15,15,69861,0.0-15.0,p164631,bird,typical,pigeon,pigeon_600x600.jpg,0.62962962962963,"{""Q0"":4}",5
,3325,survey-likert,16,16,73190,0.0-16.0,p164631,bird,typical,bluejay,bluejay_600x600.jpg,0.307692307692308,"{""Q0"":1}",2
,2637,survey-likert,17,17,75829,0.0-17.0,p164631,bird,typical,robin,robin_600x600.jpg,0.730769230769231,"{""Q0"":3}",4
,3253,survey-likert,18,18,79085,0.0-18.0,p164631,bird,atypical,kingfisher,kingfisher_600x600.jpg,0.703703703703704,"{""Q0"":2}",3
,2829,survey-likert,19,19,81917,0.0-19.0,p164631,bird,typical,goldfinch,goldfinch_600x600.jpg,0.62962962962963,"{""Q0"":3}",4
,2789,survey-likert,20,20,84710,0.0-20.0,p164631,bird,atypical,heron,heron_600x600.jpg,0.259259259259259,"{""Q0"":2}",3
"[{""page_index"":0,""viewing_time"":2958}]",2959,instructions,21,NA,87670,0.0-21.0,p164631,NA,NA,,NA,NA,,NA
,4834,survey-likert,22,21,92513,0.0-22.0,p164631,dog,typical,rottweiler,rottweiler_600x600.jpg,0.647058823529412,"{""Q0"":4}",5
,2476,survey-likert,23,22,94997,0.0-23.0,p164631,dog,typical,foxhound,foxhound_600x600.jpg,0.848484848484849,"{""Q0"":3}",4
,4797,survey-likert,24,23,99797,0.0-24.0,p164631,dog,atypical,yorkshireterrier,yorkshireterrier_600x600.jpg,0.878787878787879,"{""Q0"":3}",4
,2501,survey-likert,25,24,102301,0.0-25.0,p164631,dog,typical,germanshepherd,germanshepherd_600x600.jpg,0.727272727272727,"{""Q0"":3}",4
,2686,survey-likert,26,25,104990,0.0-26.0,p164631,dog,atypical,afghanhound,afghanhound_600x600.jpg,0.787878787878788,"{""Q0"":1}",2
,3235,survey-likert,27,26,108229,0.0-27.0,p164631,dog,atypical,saintbernard,saintbernard_600x600.jpg,0.909090909090909,"{""Q0"":4}",5
,3117,survey-likert,28,27,111349,0.0-28.0,p164631,dog,atypical,pug,pug_600x600.jpg,0.441176470588235,"{""Q0"":3}",4
,2117,survey-likert,29,28,113470,0.0-29.0,p164631,dog,typical,beagle,beagle_600x600.jpg,0.818181818181818,"{""Q0"":2}",3
,3322,survey-likert,30,29,116797,0.0-30.0,p164631,dog,atypical,greyhound,greyhound_600x600.jpg,0.666666666666667,"{""Q0"":4}",5
,4397,survey-likert,31,30,121198,0.0-31.0,p164631,dog,atypical,bassethound,bassethound_600x600.jpg,0.575757575757576,"{""Q0"":0}",1
,2995,survey-likert,32,31,124197,0.0-32.0,p164631,dog,atypical,chihuahua,chihuahua_600x600.jpg,0.823529411764706,"{""Q0"":3}",4
,3382,survey-likert,33,32,127583,0.0-33.0,p164631,dog,typical,husky,husky_600x600.jpg,0.454545454545455,"{""Q0"":1}",2
,3018,survey-likert,34,33,130605,0.0-34.0,p164631,dog,atypical,sheepdog,sheepdog_600x600.jpg,0.75,"{""Q0"":0}",1
,3181,survey-likert,35,34,133789,0.0-35.0,p164631,dog,typical,goldenretriever,goldenretriever_600x600.jpg,0.909090909090909,"{""Q0"":2}",3
,2549,survey-likert,36,35,136341,0.0-36.0,p164631,dog,typical,dalmatian,dalmatian_600x600.jpg,0.606060606060606,"{""Q0"":3}",4
,2325,survey-likert,37,36,138669,0.0-37.0,p164631,dog,typical,labrador,labrador_600x600.jpg,0.878787878787879,"{""Q0"":2}",3
"[{""page_index"":0,""viewing_time"":7638}]",7640,instructions,0,NA,7678,0.0-0.0,p165905,NA,NA,,NA,NA,,NA
,3193,survey-likert,1,1,10876,0.0-1.0,p165905,cat,typical,arabianmau,arabianmau_600x600.jpg,0.9,"{""Q0"":4}",5
,1998,survey-likert,2,2,12885,0.0-2.0,p165905,cat,typical,britishshorthair,britishshorthair_600x600.jpg,0.9,"{""Q0"":3}",4
,2416,survey-likert,3,3,15313,0.0-3.0,p165905,cat,atypical,exotic,exotic_600x600.jpg,0.878787878787879,"{""Q0"":0}",1
,2525,survey-likert,4,4,17848,0.0-4.0,p165905,cat,typical,tabby,tabby_600x600.jpg,1,"{""Q0"":4}",5
,2567,survey-likert,5,5,20427,0.0-5.0,p165905,cat,typical,egyptianmau,egyptianmau_600x600.jpg,0.793103448275862,"{""Q0"":0}",1
,2264,survey-likert,6,6,22701,0.0-6.0,p165905,cat,typical,bengal,bengal_600x600.jpg,0.833333333333333,"{""Q0"":1}",2
,2954,survey-likert,7,7,25667,0.0-7.0,p165905,cat,typical,toyger,toyger_600x600.jpg,0.933333333333333,"{""Q0"":3}",4
,1698,survey-likert,8,8,27376,0.0-8.0,p165905,cat,atypical,siamese,siamese_600x600.jpg,0.848484848484849,"{""Q0"":0}",1
,2317,survey-likert,9,9,29705,0.0-9.0,p165905,cat,typical,shorthair_calico,shorthair_calico_600x600.jpg,0.758620689655172,"{""Q0"":4}",5
,2975,survey-likert,10,10,32691,0.0-10.0,p165905,cat,atypical,siberian,siberian_600x600.jpg,0.878787878787879,"{""Q0"":3}",4
,2917,survey-likert,11,11,35619,0.0-11.0,p165905,cat,atypical,sandcat,sandcat_600x600.jpg,0.823529411764706,"{""Q0"":2}",3
,1898,survey-likert,12,12,37530,0.0-12.0,p165905,cat,atypical,sphynx,sphynx_600x600.jpg,0.588235294117647,"{""Q0"":0}",1
,2375,survey-likert,13,13,39915,0.0-13.0,p165905,cat,typical,chartreux,chartreux_600x600.jpg,0.793103448275862,"{""Q0"":3}",4
,1661,survey-likert,14,14,41586,0.0-14.0,p165905,cat,atypical,oriental,oriental_600x600.jpg,0.909090909090909,"{""Q0"":0}",1
,2530,survey-likert,15,15,44128,0.0-15.0,p165905,cat,atypical,americancurl,americancurl_600x600.jpg,0.9375,"{""Q0"":4}",5
,3213,survey-likert,16,16,47352,0.0-16.0,p165905,cat,typical,burmese,burmese_600x600.jpg,0.931034482758621,"{""Q0"":4}",5
,2117,survey-likert,17,17,49487,0.0-17.0,p165905,cat,atypical,cornishrex,cornishrex_600x600.jpg,0.848484848484849,"{""Q0"":0}",1
"[{""page_index"":0,""viewing_time"":2721}]",2722,instructions,18,NA,52219,0.0-18.0,p165905,NA,NA,,NA,NA,,NA
,3231,survey-likert,19,18,55453,0.0-19.0,p165905,dog,atypical,pug,pug_600x600.jpg,0.441176470588235,"{""Q0"":0}",1
,1874,survey-likert,20,19,57338,0.0-20.0,p165905,dog,atypical,saintbernard,saintbernard_600x600.jpg,0.909090909090909,"{""Q0"":3}",4
,2139,survey-likert,21,20,59490,0.0-21.0,p165905,dog,atypical,bassethound,bassethound_600x600.jpg,0.575757575757576,"{""Q0"":0}",1
,1703,survey-likert,22,21,61204,0.0-22.0,p165905,dog,atypical,afghanhound,afghanhound_600x600.jpg,0.787878787878788,"{""Q0"":0}",1
,1650,survey-likert,23,22,62866,0.0-23.0,p165905,dog,atypical,sheepdog,sheepdog_600x600.jpg,0.75,"{""Q0"":2}",3
,2263,survey-likert,24,23,65139,0.0-24.0,p165905,dog,typical,foxhound,foxhound_600x600.jpg,0.848484848484849,"{""Q0"":4}",5
,2557,survey-likert,25,24,67709,0.0-25.0,p165905,dog,atypical,yorkshireterrier,yorkshireterrier_600x600.jpg,0.878787878787879,"{""Q0"":3}",4
,3501,survey-likert,26,25,71224,0.0-26.0,p165905,dog,atypical,greyhound,greyhound_600x600.jpg,0.666666666666667,"{""Q0"":3}",4
,2857,survey-likert,27,26,74093,0.0-27.0,p165905,dog,typical,goldenretriever,goldenretriever_600x600.jpg,0.909090909090909,"{""Q0"":4}",5
,1702,survey-likert,28,27,75810,0.0-28.0,p165905,dog,typical,labrador,labrador_600x600.jpg,0.878787878787879,"{""Q0"":4}",5
,1850,survey-likert,29,28,77671,0.0-29.0,p165905,dog,typical,germanshepherd,germanshepherd_600x600.jpg,0.727272727272727,"{""Q0"":3}",4
,2475,survey-likert,30,29,80156,0.0-30.0,p165905,dog,typical,husky,husky_600x600.jpg,0.454545454545455,"{""Q0"":2}",3
,2979,survey-likert,31,30,83148,0.0-31.0,p165905,dog,typical,beagle,beagle_600x600.jpg,0.818181818181818,"{""Q0"":4}",5
,1931,survey-likert,32,31,85090,0.0-32.0,p165905,dog,typical,rottweiler,rottweiler_600x600.jpg,0.647058823529412,"{""Q0"":3}",4
,2698,survey-likert,33,32,87798,0.0-33.0,p165905,dog,atypical,chihuahua,chihuahua_600x600.jpg,0.823529411764706,"{""Q0"":4}",5
,2763,survey-likert,34,33,90573,0.0-34.0,p165905,dog,typical,dalmatian,dalmatian_600x600.jpg,0.606060606060606,"{""Q0"":1}",2
"[{""page_index"":0,""viewing_time"":5471}]",5472,instructions,0,NA,5521,0.0-0.0,p187618,NA,NA,,NA,NA,,NA
,8601,survey-likert,1,1,14126,0.0-1.0,p187618,cat,typical,arabianmau,arabianmau_600x600.jpg,0.9,"{""Q0"":3}",4
,5409,survey-likert,2,2,19557,0.0-2.0,p187618,cat,typical,bengal,bengal_600x600.jpg,0.833333333333333,"{""Q0"":1}",2
,3658,survey-likert,3,3,23221,0.0-3.0,p187618,cat,typical,toyger,toyger_600x600.jpg,0.933333333333333,"{""Q0"":3}",4
,4976,survey-likert,4,4,28205,0.0-4.0,p187618,cat,typical,britishshorthair,britishshorthair_600x600.jpg,0.9,"{""Q0"":2}",3
,2450,survey-likert,5,5,30662,0.0-5.0,p187618,cat,typical,shorthair_calico,shorthair_calico_600x600.jpg,0.758620689655172,"{""Q0"":4}",5
,2207,survey-likert,6,6,32877,0.0-6.0,p187618,cat,typical,tabby,tabby_600x600.jpg,1,"{""Q0"":4}",5
,2218,survey-likert,7,7,35100,0.0-7.0,p187618,cat,typical,egyptianmau,egyptianmau_600x600.jpg,0.793103448275862,"{""Q0"":3}",4
,2691,survey-likert,8,8,37796,0.0-8.0,p187618,cat,atypical,sphynx,sphynx_600x600.jpg,0.588235294117647,"{""Q0"":0}",1
,3954,survey-likert,9,9,41756,0.0-9.0,p187618,cat,atypical,oriental,oriental_600x600.jpg,0.909090909090909,"{""Q0"":2}",3
,3099,survey-likert,10,10,44860,0.0-10.0,p187618,cat,typical,burmese,burmese_600x600.jpg,0.931034482758621,"{""Q0"":1}",2
,3234,survey-likert,11,11,48100,0.0-11.0,p187618,cat,atypical,siamese,siamese_600x600.jpg,0.848484848484849,"{""Q0"":0}",1
,2291,survey-likert,12,12,50396,0.0-12.0,p187618,cat,atypical,cornishrex,cornishrex_600x600.jpg,0.848484848484849,"{""Q0"":0}",1
,3034,survey-likert,13,13,53436,0.0-13.0,p187618,cat,atypical,siberian,siberian_600x600.jpg,0.878787878787879,"{""Q0"":1}",2
,3946,survey-likert,14,14,57388,0.0-14.0,p187618,cat,atypical,exotic,exotic_600x600.jpg,0.878787878787879,"{""Q0"":3}",4
,2954,survey-likert,15,15,60348,0.0-15.0,p187618,cat,typical,chartreux,chartreux_600x600.jpg,0.793103448275862,"{""Q0"":2}",3
,2682,survey-likert,16,16,63036,0.0-16.0,p187618,cat,atypical,americancurl,americancurl_600x600.jpg,0.9375,"{""Q0"":4}",5
,2595,survey-likert,17,17,65635,0.0-17.0,p187618,cat,atypical,sandcat,sandcat_600x600.jpg,0.823529411764706,"{""Q0"":0}",1
"[{""page_index"":0,""viewing_time"":55529}]",55530,instructions,18,NA,121170,0.0-18.0,p187618,NA,NA,,NA,NA,,NA
,7046,survey-likert,19,18,128218,0.0-19.0,p187618,bird,typical,sparrow,sparrow_600x600.jpg,0.703703703703704,"{""Q0"":1}",2
,3459,survey-likert,20,19,131683,0.0-20.0,p187618,bird,typical,falcon,falcon_600x600.jpg,0.346153846153846,"{""Q0"":4}",5
,2873,survey-likert,21,20,134563,0.0-21.0,p187618,bird,typical,goldfinch,goldfinch_600x600.jpg,0.62962962962963,"{""Q0"":0}",1
,2269,survey-likert,22,21,136843,0.0-22.0,p187618,bird,atypical,toucan,toucan_600x600.jpg,0.703703703703704,"{""Q0"":4}",5
,2080,survey-likert,23,22,138930,0.0-23.0,p187618,bird,atypical,heron,heron_600x600.jpg,0.259259259259259,"{""Q0"":4}",5
,2122,survey-likert,24,23,141058,0.0-24.0,p187618,bird,typical,parrot,parrot_600x600.jpg,0.481481481481481,"{""Q0"":4}",5
,1987,survey-likert,25,24,143050,0.0-25.0,p187618,bird,typical,bluejay,bluejay_600x600.jpg,0.307692307692308,"{""Q0"":4}",5
,1955,survey-likert,26,25,145010,0.0-26.0,p187618,bird,atypical,peacock,peacock_600x600.jpg,0.769230769230769,"{""Q0"":4}",5
,1778,survey-likert,27,26,146794,0.0-27.0,p187618,bird,atypical,puffin,puffin_600x600.jpg,0.296296296296296,"{""Q0"":4}",5
,1833,survey-likert,28,27,148633,0.0-28.0,p187618,bird,typical,pigeon,pigeon_600x600.jpg,0.62962962962963,"{""Q0"":4}",5
,4578,survey-likert,29,28,153217,0.0-29.0,p187618,bird,atypical,pelican,pelican_600x600.jpg,0.444444444444444,"{""Q0"":4}",5
,1851,survey-likert,30,29,155073,0.0-30.0,p187618,bird,typical,cardinal,cardinal_600x600.jpg,0.407407407407407,"{""Q0"":4}",5
,6027,survey-likert,31,30,161105,0.0-31.0,p187618,bird,atypical,kingfisher,kingfisher_600x600.jpg,0.703703703703704,"{""Q0"":3}",4
,2548,survey-likert,32,31,163659,0.0-32.0,p187618,bird,atypical,kookaburra,kookaburra_600x600.jpg,0.814814814814815,"{""Q0"":0}",1
,4721,survey-likert,33,32,168385,0.0-33.0,p187618,bird,typical,cedarwaxwing,cedarwaxwing_600x600.jpg,0.72,"{""Q0"":1}",2
,2854,survey-likert,34,33,171250,0.0-34.0,p187618,bird,atypical,turkey,turkey_600x600.jpg,0.769230769230769,"{""Q0"":4}",5
,5328,survey-likert,35,34,176585,0.0-35.0,p187618,bird,typical,robin,robin_600x600.jpg,0.730769230769231,"{""Q0"":0}",1
,2514,survey-likert,36,35,179104,0.0-36.0,p187618,bird,atypical,vulture,vulture_600x600.jpg,0.5,"{""Q0"":4}",5
,1875,survey-likert,37,36,180985,0.0-37.0,p187618,bird,atypical,owl,owl_600x600.jpg,0.88,"{""Q0"":4}",5
,2019,survey-likert,38,37,183009,0.0-38.0,p187618,bird,typical,seagull,seagull_600x600.jpg,0.62962962962963,"{""Q0"":4}",5
"[{""page_index"":0,""viewing_time"":13024}]",13024,instructions,0,NA,13035,0.0-0.0,p192679,NA,NA,,NA,NA,,NA
,17936,survey-likert,1,1,30977,0.0-1.0,p192679,dog,atypical,chihuahua,chihuahua_600x600.jpg,0.823529411764706,"{""Q0"":1}",2
,2066,survey-likert,2,2,33045,0.0-2.0,p192679,dog,atypical,sheepdog,sheepdog_600x600.jpg,0.75,"{""Q0"":0}",1
,3743,survey-likert,3,3,36789,0.0-3.0,p192679,dog,typical,beagle,beagle_600x600.jpg,0.818181818181818,"{""Q0"":4}",5
,2150,survey-likert,4,4,38940,0.0-4.0,p192679,dog,typical,germanshepherd,germanshepherd_600x600.jpg,0.727272727272727,"{""Q0"":3}",4
,2427,survey-likert,5,5,41368,0.0-5.0,p192679,dog,atypical,pug,pug_600x600.jpg,0.441176470588235,"{""Q0"":1}",2
,3939,survey-likert,6,6,45307,0.0-6.0,p192679,dog,typical,husky,husky_600x600.jpg,0.454545454545455,"{""Q0"":3}",4
,8033,survey-likert,7,7,53341,0.0-7.0,p192679,dog,atypical,afghanhound,afghanhound_600x600.jpg,0.787878787878788,"{""Q0"":1}",2
,4166,survey-likert,8,8,57508,0.0-8.0,p192679,dog,typical,dalmatian,dalmatian_600x600.jpg,0.606060606060606,"{""Q0"":3}",4
,2098,survey-likert,9,9,59607,0.0-9.0,p192679,dog,atypical,bassethound,bassethound_600x600.jpg,0.575757575757576,"{""Q0"":2}",3
,2898,survey-likert,10,10,62507,0.0-10.0,p192679,dog,typical,foxhound,foxhound_600x600.jpg,0.848484848484849,"{""Q0"":4}",5
,3466,survey-likert,11,11,65973,0.0-11.0,p192679,dog,atypical,greyhound,greyhound_600x600.jpg,0.666666666666667,"{""Q0"":2}",3
,2684,survey-likert,12,12,68658,0.0-12.0,p192679,dog,typical,labrador,labrador_600x600.jpg,0.878787878787879,"{""Q0"":4}",5
,2455,survey-likert,13,13,71115,0.0-13.0,p192679,dog,atypical,saintbernard,saintbernard_600x600.jpg,0.909090909090909,"{""Q0"":3}",4
,1921,survey-likert,14,14,73036,0.0-14.0,p192679,dog,typical,goldenretriever,goldenretriever_600x600.jpg,0.909090909090909,"{""Q0"":4}",5
,2762,survey-likert,15,15,75799,0.0-15.0,p192679,dog,atypical,yorkshireterrier,yorkshireterrier_600x600.jpg,0.878787878787879,"{""Q0"":1}",2
,3292,survey-likert,16,16,79092,0.0-16.0,p192679,dog,typical,rottweiler,rottweiler_600x600.jpg,0.647058823529412,"{""Q0"":3}",4
"[{""page_index"":0,""viewing_time"":2837}]",2837,instructions,17,NA,81930,0.0-17.0,p192679,NA,NA,,NA,NA,,NA
,5790,survey-likert,18,17,87721,0.0-18.0,p192679,fish,typical,sergeantmajor,sergeantmajor_600x600.jpg,0.939393939393939,"{""Q0"":2}",3
,4045,survey-likert,19,18,91767,0.0-19.0,p192679,fish,typical,bluetang,bluetang_600x600.jpg,0.764705882352941,"{""Q0"":0}",1
,1658,survey-likert,20,19,93426,0.0-20.0,p192679,fish,atypical,pufferfish,pufferfish_600x600.jpg,0.344827586206897,"{""Q0"":0}",1
,2746,survey-likert,21,20,96173,0.0-21.0,p192679,fish,typical,goldfish,goldfish_600x600.jpg,0.515151515151515,"{""Q0"":4}",5
,3700,survey-likert,22,21,99874,0.0-22.0,p192679,fish,atypical,lionfish,lionfish_600x600.jpg,0.785714285714286,"{""Q0"":1}",2
,1741,survey-likert,23,22,101616,0.0-23.0,p192679,fish,typical,bluegill,bluegill_600x600.jpg,0.882352941176471,"{""Q0"":3}",4
,1913,survey-likert,24,23,103530,0.0-24.0,p192679,fish,atypical,salmon,salmon_600x600.jpg,0.7,"{""Q0"":4}",5
,3495,survey-likert,25,24,107026,0.0-25.0,p192679,fish,atypical,sturgeon,sturgeon_600x600.jpg,0.633333333333333,"{""Q0"":2}",3
,2630,survey-likert,26,25,109657,0.0-26.0,p192679,fish,atypical,betafish,betafish_600x600.jpg,0.551724137931034,"{""Q0"":1}",2
,2135,survey-likert,27,26,111793,0.0-27.0,p192679,fish,typical,koi,koi_600x600.jpg,0.393939393939394,"{""Q0"":4}",5
,4273,survey-likert,28,27,116067,0.0-28.0,p192679,fish,atypical,stingray,stingray_600x600.jpg,0.448275862068966,"{""Q0"":0}",1
,4038,survey-likert,29,28,120106,0.0-29.0,p192679,fish,atypical,cuttlefish,cuttlefish_600x600.jpg,0.6,"{""Q0"":0}",1
,2487,survey-likert,30,29,122594,0.0-30.0,p192679,fish,typical,bass,bass_600x600.jpg,0.90625,"{""Q0"":4}",5
,13003,survey-likert,31,30,135598,0.0-31.0,p192679,fish,typical,angelfish,angelfish_600x600.jpg,0.823529411764706,"{""Q0"":1}",2
,1886,survey-likert,32,31,137485,0.0-32.0,p192679,fish,atypical,seahorse,seahorse_600x600.jpg,0.8,"{""Q0"":0}",1
,2797,survey-likert,33,32,140283,0.0-33.0,p192679,fish,typical,clownfish,clownfish_600x600.jpg,0.65625,"{""Q0"":3}",4
,5533,survey-likert,34,33,145817,0.0-34.0,p192679,fish,atypical,catfish,catfish_600x600.jpg,0.666666666666667,"{""Q0"":3}",4
"[{""page_index"":0,""viewing_time"":16942}]",16943,instructions,0,NA,16972,0.0-0.0,p195947,NA,NA,,NA,NA,,NA
,7630,survey-likert,1,1,24605,0.0-1.0,p195947,dog,typical,husky,husky_600x600.jpg,0.454545454545455,"{""Q0"":3}",4
,4030,survey-likert,2,2,28636,0.0-2.0,p195947,dog,atypical,afghanhound,afghanhound_600x600.jpg,0.787878787878788,"{""Q0"":0}",1
,2585,survey-likert,3,3,31223,0.0-3.0,p195947,dog,typical,rottweiler,rottweiler_600x600.jpg,0.647058823529412,"{""Q0"":3}",4
,4635,survey-likert,4,4,35859,0.0-4.0,p195947,dog,atypical,bassethound,bassethound_600x600.jpg,0.575757575757576,"{""Q0"":0}",1
,3592,survey-likert,5,5,39454,0.0-5.0,p195947,dog,atypical,greyhound,greyhound_600x600.jpg,0.666666666666667,"{""Q0"":0}",1
,4013,survey-likert,6,6,43469,0.0-6.0,p195947,dog,typical,labrador,labrador_600x600.jpg,0.878787878787879,"{""Q0"":2}",3
,2893,survey-likert,7,7,46363,0.0-7.0,p195947,dog,typical,goldenretriever,goldenretriever_600x600.jpg,0.909090909090909,"{""Q0"":2}",3
,2849,survey-likert,8,8,49215,0.0-8.0,p195947,dog,typical,beagle,beagle_600x600.jpg,0.818181818181818,"{""Q0"":3}",4
,3194,survey-likert,9,9,52411,0.0-9.0,p195947,dog,atypical,yorkshireterrier,yorkshireterrier_600x600.jpg,0.878787878787879,"{""Q0"":3}",4
,4269,survey-likert,10,10,56683,0.0-10.0,p195947,dog,typical,germanshepherd,germanshepherd_600x600.jpg,0.727272727272727,"{""Q0"":3}",4
,2890,survey-likert,11,11,59575,0.0-11.0,p195947,dog,atypical,sheepdog,sheepdog_600x600.jpg,0.75,"{""Q0"":0}",1
,3358,survey-likert,12,12,62935,0.0-12.0,p195947,dog,typical,foxhound,foxhound_600x600.jpg,0.848484848484849,"{""Q0"":2}",3
,2372,survey-likert,13,13,65309,0.0-13.0,p195947,dog,atypical,chihuahua,chihuahua_600x600.jpg,0.823529411764706,"{""Q0"":1}",2
,3039,survey-likert,14,14,68349,0.0-14.0,p195947,dog,atypical,saintbernard,saintbernard_600x600.jpg,0.909090909090909,"{""Q0"":3}",4
,3360,survey-likert,15,15,71711,0.0-15.0,p195947,dog,atypical,pug,pug_600x600.jpg,0.441176470588235,"{""Q0"":4}",5
,1765,survey-likert,16,16,73477,0.0-16.0,p195947,dog,typical,dalmatian,dalmatian_600x600.jpg,0.606060606060606,"{""Q0"":2}",3
"[{""page_index"":0,""viewing_time"":3555}]",3555,instructions,17,NA,77033,0.0-17.0,p195947,NA,NA,,NA,NA,,NA
,5114,survey-likert,18,17,82150,0.0-18.0,p195947,bird,atypical,turkey,turkey_600x600.jpg,0.769230769230769,"{""Q0"":2}",3
,1981,survey-likert,19,18,84134,0.0-19.0,p195947,bird,typical,parrot,parrot_600x600.jpg,0.481481481481481,"{""Q0"":1}",2
,2183,survey-likert,20,19,86318,0.0-20.0,p195947,bird,typical,cedarwaxwing,cedarwaxwing_600x600.jpg,0.72,"{""Q0"":2}",3
,2658,survey-likert,21,20,88979,0.0-21.0,p195947,bird,atypical,kookaburra,kookaburra_600x600.jpg,0.814814814814815,"{""Q0"":0}",1
,2370,survey-likert,22,21,91350,0.0-22.0,p195947,bird,typical,pigeon,pigeon_600x600.jpg,0.62962962962963,"{""Q0"":4}",5
,3398,survey-likert,23,22,94750,0.0-23.0,p195947,bird,atypical,heron,heron_600x600.jpg,0.259259259259259,"{""Q0"":1}",2
,5150,survey-likert,24,23,99903,0.0-24.0,p195947,bird,typical,seagull,seagull_600x600.jpg,0.62962962962963,"{""Q0"":4}",5
,2424,survey-likert,25,24,102328,0.0-25.0,p195947,bird,atypical,peacock,peacock_600x600.jpg,0.769230769230769,"{""Q0"":1}",2
,1576,survey-likert,26,25,103906,0.0-26.0,p195947,bird,typical,robin,robin_600x600.jpg,0.730769230769231,"{""Q0"":2}",3
,2720,survey-likert,27,26,106629,0.0-27.0,p195947,bird,typical,goldfinch,goldfinch_600x600.jpg,0.62962962962963,"{""Q0"":1}",2
,1867,survey-likert,28,27,108497,0.0-28.0,p195947,bird,typical,sparrow,sparrow_600x600.jpg,0.703703703703704,"{""Q0"":2}",3
,3460,survey-likert,29,28,111958,0.0-29.0,p195947,bird,atypical,toucan,toucan_600x600.jpg,0.703703703703704,"{""Q0"":1}",2
,2292,survey-likert,30,29,114252,0.0-30.0,p195947,bird,atypical,kingfisher,kingfisher_600x600.jpg,0.703703703703704,"{""Q0"":2}",3
,2412,survey-likert,31,30,116665,0.0-31.0,p195947,bird,typical,bluejay,bluejay_600x600.jpg,0.307692307692308,"{""Q0"":0}",1
,2448,survey-likert,32,31,119115,0.0-32.0,p195947,bird,typical,cardinal,cardinal_600x600.jpg,0.407407407407407,"{""Q0"":1}",2
,2991,survey-likert,33,32,122108,0.0-33.0,p195947,bird,atypical,puffin,puffin_600x600.jpg,0.296296296296296,"{""Q0"":1}",2
,2106,survey-likert,34,33,124216,0.0-34.0,p195947,bird,atypical,owl,owl_600x600.jpg,0.88,"{""Q0"":2}",3
,2801,survey-likert,35,34,127018,0.0-35.0,p195947,bird,atypical,pelican,pelican_600x600.jpg,0.444444444444444,"{""Q0"":3}",4
,3108,survey-likert,36,35,130129,0.0-36.0,p195947,bird,atypical,vulture,vulture_600x600.jpg,0.5,"{""Q0"":2}",3
,3335,survey-likert,37,36,133467,0.0-37.0,p195947,bird,typical,falcon,falcon_600x600.jpg,0.346153846153846,"{""Q0"":2}",3
"[{""page_index"":0,""viewing_time"":24051}]",24052,instructions,0,NA,24071,0.0-0.0,p196159,NA,NA,,NA,NA,,NA
,4451,survey-likert,1,1,28525,0.0-1.0,p196159,fish,typical,angelfish,angelfish_600x600.jpg,0.823529411764706,"{""Q0"":3}",4
,3776,survey-likert,2,2,32304,0.0-2.0,p196159,fish,typical,bluetang,bluetang_600x600.jpg,0.764705882352941,"{""Q0"":1}",2
,1422,survey-likert,3,3,33729,0.0-3.0,p196159,fish,typical,goldfish,goldfish_600x600.jpg,0.515151515151515,"{""Q0"":4}",5
,2725,survey-likert,4,4,36456,0.0-4.0,p196159,fish,atypical,sturgeon,sturgeon_600x600.jpg,0.633333333333333,"{""Q0"":0}",1
,1820,survey-likert,5,5,38277,0.0-5.0,p196159,fish,typical,koi,koi_600x600.jpg,0.393939393939394,"{""Q0"":3}",4
,2680,survey-likert,6,6,40960,0.0-6.0,p196159,fish,atypical,salmon,salmon_600x600.jpg,0.7,"{""Q0"":2}",3
,2055,survey-likert,7,7,43016,0.0-7.0,p196159,fish,typical,bass,bass_600x600.jpg,0.90625,"{""Q0"":3}",4
,1585,survey-likert,8,8,44603,0.0-8.0,p196159,fish,atypical,catfish,catfish_600x600.jpg,0.666666666666667,"{""Q0"":4}",5
,1380,survey-likert,9,9,45986,0.0-9.0,p196159,fish,atypical,pufferfish,pufferfish_600x600.jpg,0.344827586206897,"{""Q0"":0}",1
,1850,survey-likert,10,10,47837,0.0-10.0,p196159,fish,typical,sergeantmajor,sergeantmajor_600x600.jpg,0.939393939393939,"{""Q0"":3}",4
,3368,survey-likert,11,11,51207,0.0-11.0,p196159,fish,atypical,stingray,stingray_600x600.jpg,0.448275862068966,"{""Q0"":1}",2
,2491,survey-likert,12,12,53699,0.0-12.0,p196159,fish,typical,clownfish,clownfish_600x600.jpg,0.65625,"{""Q0"":4}",5
,1825,survey-likert,13,13,55525,0.0-13.0,p196159,fish,typical,bluegill,bluegill_600x600.jpg,0.882352941176471,"{""Q0"":4}",5
,1631,survey-likert,14,14,57158,0.0-14.0,p196159,fish,atypical,betafish,betafish_600x600.jpg,0.551724137931034,"{""Q0"":4}",5
,1680,survey-likert,15,15,58840,0.0-15.0,p196159,fish,atypical,cuttlefish,cuttlefish_600x600.jpg,0.6,"{""Q0"":0}",1
,2008,survey-likert,16,16,60851,0.0-16.0,p196159,fish,atypical,seahorse,seahorse_600x600.jpg,0.8,"{""Q0"":1}",2
,2751,survey-likert,17,17,63605,0.0-17.0,p196159,fish,atypical,lionfish,lionfish_600x600.jpg,0.785714285714286,"{""Q0"":3}",4
"[{""page_index"":0,""viewing_time"":2093}]",2093,instructions,18,NA,65699,0.0-18.0,p196159,NA,NA,,NA,NA,,NA
,2634,survey-likert,19,18,68335,0.0-19.0,p196159,cat,typical,chartreux,chartreux_600x600.jpg,0.793103448275862,"{""Q0"":4}",5
,1653,survey-likert,20,19,69991,0.0-20.0,p196159,cat,atypical,sandcat,sandcat_600x600.jpg,0.823529411764706,"{""Q0"":3}",4
,1245,survey-likert,21,20,71237,0.0-21.0,p196159,cat,typical,tabby,tabby_600x600.jpg,1,"{""Q0"":4}",5
,1643,survey-likert,22,21,72883,0.0-22.0,p196159,cat,atypical,cornishrex,cornishrex_600x600.jpg,0.848484848484849,"{""Q0"":1}",2
,2535,survey-likert,23,22,75422,0.0-23.0,p196159,cat,typical,toyger,toyger_600x600.jpg,0.933333333333333,"{""Q0"":2}",3
,1265,survey-likert,24,23,76688,0.0-24.0,p196159,cat,typical,britishshorthair,britishshorthair_600x600.jpg,0.9,"{""Q0"":4}",5
,1181,survey-likert,25,24,77870,0.0-25.0,p196159,cat,typical,arabianmau,arabianmau_600x600.jpg,0.9,"{""Q0"":4}",5
,1247,survey-likert,26,25,79119,0.0-26.0,p196159,cat,typical,burmese,burmese_600x600.jpg,0.931034482758621,"{""Q0"":4}",5
,1368,survey-likert,27,26,80489,0.0-27.0,p196159,cat,typical,bengal,bengal_600x600.jpg,0.833333333333333,"{""Q0"":1}",2
,1623,survey-likert,28,27,82114,0.0-28.0,p196159,cat,atypical,siberian,siberian_600x600.jpg,0.878787878787879,"{""Q0"":3}",4
,1921,survey-likert,29,28,84038,0.0-29.0,p196159,cat,atypical,exotic,exotic_600x600.jpg,0.878787878787879,"{""Q0"":2}",3
,1482,survey-likert,30,29,85522,0.0-30.0,p196159,cat,typical,egyptianmau,egyptianmau_600x600.jpg,0.793103448275862,"{""Q0"":1}",2
,1561,survey-likert,31,30,87085,0.0-31.0,p196159,cat,atypical,sphynx,sphynx_600x600.jpg,0.588235294117647,"{""Q0"":0}",1
,1392,survey-likert,32,31,88479,0.0-32.0,p196159,cat,atypical,americancurl,americancurl_600x600.jpg,0.9375,"{""Q0"":4}",5
,2264,survey-likert,33,32,90745,0.0-33.0,p196159,cat,typical,shorthair_calico,shorthair_calico_600x600.jpg,0.758620689655172,"{""Q0"":3}",4
,1633,survey-likert,34,33,92380,0.0-34.0,p196159,cat,atypical,oriental,oriental_600x600.jpg,0.909090909090909,"{""Q0"":1}",2
,2553,survey-likert,35,34,94935,0.0-35.0,p196159,cat,atypical,siamese,siamese_600x600.jpg,0.848484848484849,"{""Q0"":3}",4
"[{""page_index"":0,""viewing_time"":23792}]",23792,instructions,0,NA,23805,0.0-0.0,p196311,NA,NA,,NA,NA,,NA
,14951,survey-likert,1,1,38758,0.0-1.0,p196311,fish,typical,angelfish,angelfish_600x600.jpg,0.823529411764706,"{""Q0"":2}",3
,6437,survey-likert,2,2,45217,0.0-2.0,p196311,fish,atypical,sturgeon,sturgeon_600x600.jpg,0.633333333333333,"{""Q0"":3}",4
,4640,survey-likert,3,3,49880,0.0-3.0,p196311,fish,atypical,catfish,catfish_600x600.jpg,0.666666666666667,"{""Q0"":3}",4
,2029,survey-likert,4,4,51921,0.0-4.0,p196311,fish,typical,clownfish,clownfish_600x600.jpg,0.65625,"{""Q0"":2}",3
,6078,survey-likert,5,5,58013,0.0-5.0,p196311,fish,typical,koi,koi_600x600.jpg,0.393939393939394,"{""Q0"":3}",4
,2787,survey-likert,6,6,60825,0.0-6.0,p196311,fish,atypical,pufferfish,pufferfish_600x600.jpg,0.344827586206897,"{""Q0"":0}",1
,2259,survey-likert,7,7,63097,0.0-7.0,p196311,fish,atypical,seahorse,seahorse_600x600.jpg,0.8,"{""Q0"":1}",2
,2383,survey-likert,8,8,65495,0.0-8.0,p196311,fish,typical,bluetang,bluetang_600x600.jpg,0.764705882352941,"{""Q0"":2}",3
,4375,survey-likert,9,9,69885,0.0-9.0,p196311,fish,atypical,stingray,stingray_600x600.jpg,0.448275862068966,"{""Q0"":0}",1
,2476,survey-likert,10,10,72377,0.0-10.0,p196311,fish,atypical,lionfish,lionfish_600x600.jpg,0.785714285714286,"{""Q0"":0}",1
,2406,survey-likert,11,11,74797,0.0-11.0,p196311,fish,typical,sergeantmajor,sergeantmajor_600x600.jpg,0.939393939393939,"{""Q0"":2}",3
,3635,survey-likert,12,12,78446,0.0-12.0,p196311,fish,atypical,betafish,betafish_600x600.jpg,0.551724137931034,"{""Q0"":1}",2
,2414,survey-likert,13,13,80875,0.0-13.0,p196311,fish,typical,goldfish,goldfish_600x600.jpg,0.515151515151515,"{""Q0"":4}",5
,2399,survey-likert,14,14,83289,0.0-14.0,p196311,fish,typical,bass,bass_600x600.jpg,0.90625,"{""Q0"":4}",5
,6969,survey-likert,15,15,90273,0.0-15.0,p196311,fish,atypical,cuttlefish,cuttlefish_600x600.jpg,0.6,"{""Q0"":0}",1
,3851,survey-likert,16,16,94139,0.0-16.0,p196311,fish,typical,bluegill,bluegill_600x600.jpg,0.882352941176471,"{""Q0"":4}",5
,2673,survey-likert,17,17,96835,0.0-17.0,p196311,fish,atypical,salmon,salmon_600x600.jpg,0.7,"{""Q0"":4}",5
"[{""page_index"":0,""viewing_time"":16144}]",16145,instructions,18,NA,112995,0.0-18.0,p196311,NA,NA,,NA,NA,,NA
,7808,survey-likert,19,18,120805,0.0-19.0,p196311,cat,typical,bengal,bengal_600x600.jpg,0.833333333333333,"{""Q0"":4}",5
,5167,survey-likert,20,19,125983,0.0-20.0,p196311,cat,typical,egyptianmau,egyptianmau_600x600.jpg,0.793103448275862,"{""Q0"":3}",4
,3242,survey-likert,21,20,129242,0.0-21.0,p196311,cat,typical,toyger,toyger_600x600.jpg,0.933333333333333,"{""Q0"":3}",4
,2810,survey-likert,22,21,132067,0.0-22.0,p196311,cat,typical,arabianmau,arabianmau_600x600.jpg,0.9,"{""Q0"":2}",3
,6240,survey-likert,23,22,138322,0.0-23.0,p196311,cat,atypical,sandcat,sandcat_600x600.jpg,0.823529411764706,"{""Q0"":1}",2
,2881,survey-likert,24,23,141213,0.0-24.0,p196311,cat,typical,tabby,tabby_600x600.jpg,1,"{""Q0"":3}",4
,6036,survey-likert,25,24,147265,0.0-25.0,p196311,cat,atypical,cornishrex,cornishrex_600x600.jpg,0.848484848484849,"{""Q0"":1}",2
,3086,survey-likert,26,25,150366,0.0-26.0,p196311,cat,typical,burmese,burmese_600x600.jpg,0.931034482758621,"{""Q0"":2}",3
,2747,survey-likert,27,26,153125,0.0-27.0,p196311,cat,atypical,siamese,siamese_600x600.jpg,0.848484848484849,"{""Q0"":2}",3
,2351,survey-likert,28,27,155491,0.0-28.0,p196311,cat,typical,shorthair_calico,shorthair_calico_600x600.jpg,0.758620689655172,"{""Q0"":3}",4
,2881,survey-likert,29,28,158396,0.0-29.0,p196311,cat,atypical,siberian,siberian_600x600.jpg,0.878787878787879,"{""Q0"":2}",3
,2880,survey-likert,30,29,161295,0.0-30.0,p196311,cat,typical,britishshorthair,britishshorthair_600x600.jpg,0.9,"{""Q0"":3}",4
,10810,survey-likert,31,30,172120,0.0-31.0,p196311,cat,typical,chartreux,chartreux_600x600.jpg,0.793103448275862,"{""Q0"":3}",4
,2993,survey-likert,32,31,175136,0.0-32.0,p196311,cat,atypical,americancurl,americancurl_600x600.jpg,0.9375,"{""Q0"":2}",3
,2703,survey-likert,33,32,177862,0.0-33.0,p196311,cat,atypical,sphynx,sphynx_600x600.jpg,0.588235294117647,"{""Q0"":0}",1
,5555,survey-likert,34,33,183432,0.0-34.0,p196311,cat,atypical,exotic,exotic_600x600.jpg,0.878787878787879,"{""Q0"":1}",2
,4664,survey-likert,35,34,188120,0.0-35.0,p196311,cat,atypical,oriental,oriental_600x600.jpg,0.909090909090909,"{""Q0"":1}",2
"[{""page_index"":0,""viewing_time"":9094}]",9095,instructions,0,NA,9128,0.0-0.0,p199922,NA,NA,,NA,NA,,NA
,5953,survey-likert,1,1,15084,0.0-1.0,p199922,cat,typical,tabby,tabby_600x600.jpg,1,"{""Q0"":4}",5
,3782,survey-likert,2,2,18867,0.0-2.0,p199922,cat,atypical,oriental,oriental_600x600.jpg,0.909090909090909,"{""Q0"":0}",1
,9270,survey-likert,3,3,28139,0.0-3.0,p199922,cat,typical,bengal,bengal_600x600.jpg,0.833333333333333,"{""Q0"":3}",4
,7574,survey-likert,4,4,35715,0.0-4.0,p199922,cat,typical,shorthair_calico,shorthair_calico_600x600.jpg,0.758620689655172,"{""Q0"":3}",4
,4126,survey-likert,5,5,39844,0.0-5.0,p199922,cat,typical,burmese,burmese_600x600.jpg,0.931034482758621,"{""Q0"":1}",2
,4837,survey-likert,6,6,44683,0.0-6.0,p199922,cat,atypical,americancurl,americancurl_600x600.jpg,0.9375,"{""Q0"":2}",3
,4508,survey-likert,7,7,49193,0.0-7.0,p199922,cat,atypical,exotic,exotic_600x600.jpg,0.878787878787879,"{""Q0"":2}",3
,3688,survey-likert,8,8,52883,0.0-8.0,p199922,cat,atypical,sphynx,sphynx_600x600.jpg,0.588235294117647,"{""Q0"":1}",2
,4376,survey-likert,9,9,57261,0.0-9.0,p199922,cat,typical,egyptianmau,egyptianmau_600x600.jpg,0.793103448275862,"{""Q0"":3}",4
,4048,survey-likert,10,10,61312,0.0-10.0,p199922,cat,typical,chartreux,chartreux_600x600.jpg,0.793103448275862,"{""Q0"":3}",4
,6496,survey-likert,11,11,67809,0.0-11.0,p199922,cat,atypical,siberian,siberian_600x600.jpg,0.878787878787879,"{""Q0"":3}",4
,3298,survey-likert,12,12,71109,0.0-12.0,p199922,cat,typical,britishshorthair,britishshorthair_600x600.jpg,0.9,"{""Q0"":4}",5
,3030,survey-likert,13,13,74142,0.0-13.0,p199922,cat,atypical,cornishrex,cornishrex_600x600.jpg,0.848484848484849,"{""Q0"":0}",1
,3029,survey-likert,14,14,77173,0.0-14.0,p199922,cat,typical,arabianmau,arabianmau_600x600.jpg,0.9,"{""Q0"":1}",2
,3475,survey-likert,15,15,80653,0.0-15.0,p199922,cat,atypical,sandcat,sandcat_600x600.jpg,0.823529411764706,"{""Q0"":1}",2
,3048,survey-likert,16,16,83703,0.0-16.0,p199922,cat,typical,toyger,toyger_600x600.jpg,0.933333333333333,"{""Q0"":3}",4
,3132,survey-likert,17,17,86838,0.0-17.0,p199922,cat,atypical,siamese,siamese_600x600.jpg,0.848484848484849,"{""Q0"":4}",5
"[{""page_index"":0,""viewing_time"":3930}]",3931,instructions,18,NA,90771,0.0-18.0,p199922,NA,NA,,NA,NA,,NA
,4266,survey-likert,19,18,95039,0.0-19.0,p199922,fish,atypical,salmon,salmon_600x600.jpg,0.7,"{""Q0"":1}",2
,2704,survey-likert,20,19,97745,0.0-20.0,p199922,fish,typical,clownfish,clownfish_600x600.jpg,0.65625,"{""Q0"":4}",5
,3758,survey-likert,21,20,101505,0.0-21.0,p199922,fish,atypical,stingray,stingray_600x600.jpg,0.448275862068966,"{""Q0"":2}",3
,3424,survey-likert,22,21,104931,0.0-22.0,p199922,fish,typical,bass,bass_600x600.jpg,0.90625,"{""Q0"":1}",2
,3125,survey-likert,23,22,108057,0.0-23.0,p199922,fish,typical,bluegill,bluegill_600x600.jpg,0.882352941176471,"{""Q0"":0}",1
,3047,survey-likert,24,23,111108,0.0-24.0,p199922,fish,atypical,cuttlefish,cuttlefish_600x600.jpg,0.6,"{""Q0"":0}",1
,3437,survey-likert,25,24,114547,0.0-25.0,p199922,fish,atypical,seahorse,seahorse_600x600.jpg,0.8,"{""Q0"":3}",4
,3000,survey-likert,26,25,117549,0.0-26.0,p199922,fish,atypical,sturgeon,sturgeon_600x600.jpg,0.633333333333333,"{""Q0"":0}",1
,3108,survey-likert,27,26,120659,0.0-27.0,p199922,fish,typical,goldfish,goldfish_600x600.jpg,0.515151515151515,"{""Q0"":4}",5
,3229,survey-likert,28,27,123889,0.0-28.0,p199922,fish,atypical,lionfish,lionfish_600x600.jpg,0.785714285714286,"{""Q0"":3}",4
,4109,survey-likert,29,28,128001,0.0-29.0,p199922,fish,typical,koi,koi_600x600.jpg,0.393939393939394,"{""Q0"":2}",3
,3078,survey-likert,30,29,131081,0.0-30.0,p199922,fish,typical,sergeantmajor,sergeantmajor_600x600.jpg,0.939393939393939,"{""Q0"":1}",2
,3648,survey-likert,31,30,134731,0.0-31.0,p199922,fish,atypical,pufferfish,pufferfish_600x600.jpg,0.344827586206897,"{""Q0"":4}",5
,2742,survey-likert,32,31,137475,0.0-32.0,p199922,fish,typical,angelfish,angelfish_600x600.jpg,0.823529411764706,"{""Q0"":3}",4
,2523,survey-likert,33,32,140001,0.0-33.0,p199922,fish,atypical,catfish,catfish_600x600.jpg,0.666666666666667,"{""Q0"":3}",4
,3782,survey-likert,34,33,143785,0.0-34.0,p199922,fish,atypical,betafish,betafish_600x600.jpg,0.551724137931034,"{""Q0"":2}",3
,3889,survey-likert,35,34,147677,0.0-35.0,p199922,fish,typical,bluetang,bluetang_600x600.jpg,0.764705882352941,"{""Q0"":2}",3
"[{""page_index"":0,""viewing_time"":13093}]",13093,instructions,0,NA,13105,0.0-0.0,p2081,NA,NA,,NA,NA,,NA
,2686,survey-likert,1,1,15792,0.0-1.0,p2081,dog,atypical,greyhound,greyhound_600x600.jpg,0.666666666666667,"{""Q0"":4}",5
,10742,survey-likert,2,2,26537,0.0-2.0,p2081,dog,typical,goldenretriever,goldenretriever_600x600.jpg,0.909090909090909,"{""Q0"":4}",5
,1556,survey-likert,3,3,28096,0.0-3.0,p2081,dog,atypical,yorkshireterrier,yorkshireterrier_600x600.jpg,0.878787878787879,"{""Q0"":4}",5
,1934,survey-likert,4,4,30033,0.0-4.0,p2081,dog,typical,dalmatian,dalmatian_600x600.jpg,0.606060606060606,"{""Q0"":4}",5
,2168,survey-likert,5,5,32204,0.0-5.0,p2081,dog,atypical,chihuahua,chihuahua_600x600.jpg,0.823529411764706,"{""Q0"":3}",4
,2036,survey-likert,6,6,34242,0.0-6.0,p2081,dog,atypical,saintbernard,saintbernard_600x600.jpg,0.909090909090909,"{""Q0"":4}",5
,1586,survey-likert,7,7,35831,0.0-7.0,p2081,dog,typical,germanshepherd,germanshepherd_600x600.jpg,0.727272727272727,"{""Q0"":4}",5
,14764,survey-likert,8,8,50600,0.0-8.0,p2081,dog,typical,foxhound,foxhound_600x600.jpg,0.848484848484849,"{""Q0"":4}",5
,13415,survey-likert,9,9,64018,0.0-9.0,p2081,dog,atypical,bassethound,bassethound_600x600.jpg,0.575757575757576,"{""Q0"":0}",1
,5005,survey-likert,10,10,69026,0.0-10.0,p2081,dog,atypical,afghanhound,afghanhound_600x600.jpg,0.787878787878788,"{""Q0"":1}",2
,7678,survey-likert,11,11,76707,0.0-11.0,p2081,dog,typical,labrador,labrador_600x600.jpg,0.878787878787879,"{""Q0"":1}",2
,4871,survey-likert,12,12,81581,0.0-12.0,p2081,dog,typical,beagle,beagle_600x600.jpg,0.818181818181818,"{""Q0"":3}",4
,3876,survey-likert,13,13,85460,0.0-13.0,p2081,dog,atypical,sheepdog,sheepdog_600x600.jpg,0.75,"{""Q0"":1}",2
,2181,survey-likert,14,14,87645,0.0-14.0,p2081,dog,atypical,pug,pug_600x600.jpg,0.441176470588235,"{""Q0"":4}",5
,1590,survey-likert,15,15,89238,0.0-15.0,p2081,dog,typical,rottweiler,rottweiler_600x600.jpg,0.647058823529412,"{""Q0"":4}",5
,1542,survey-likert,16,16,90782,0.0-16.0,p2081,dog,typical,husky,husky_600x600.jpg,0.454545454545455,"{""Q0"":4}",5
"[{""page_index"":0,""viewing_time"":2492}]",2492,instructions,17,NA,93277,0.0-17.0,p2081,NA,NA,,NA,NA,,NA
,3053,survey-likert,18,17,96332,0.0-18.0,p2081,fish,atypical,sturgeon,sturgeon_600x600.jpg,0.633333333333333,"{""Q0"":2}",3
,1494,survey-likert,19,18,97829,0.0-19.0,p2081,fish,typical,bluegill,bluegill_600x600.jpg,0.882352941176471,"{""Q0"":3}",4
,1598,survey-likert,20,19,99430,0.0-20.0,p2081,fish,atypical,salmon,salmon_600x600.jpg,0.7,"{""Q0"":3}",4
,1805,survey-likert,21,20,101238,0.0-21.0,p2081,fish,atypical,seahorse,seahorse_600x600.jpg,0.8,"{""Q0"":3}",4
,8899,survey-likert,22,21,110140,0.0-22.0,p2081,fish,typical,koi,koi_600x600.jpg,0.393939393939394,"{""Q0"":3}",4
,2175,survey-likert,23,22,112319,0.0-23.0,p2081,fish,atypical,pufferfish,pufferfish_600x600.jpg,0.344827586206897,"{""Q0"":3}",4
,1483,survey-likert,24,23,113806,0.0-24.0,p2081,fish,typical,goldfish,goldfish_600x600.jpg,0.515151515151515,"{""Q0"":3}",4
,1652,survey-likert,25,24,115460,0.0-25.0,p2081,fish,atypical,stingray,stingray_600x600.jpg,0.448275862068966,"{""Q0"":2}",3
,1947,survey-likert,26,25,117410,0.0-26.0,p2081,fish,atypical,betafish,betafish_600x600.jpg,0.551724137931034,"{""Q0"":1}",2
,1469,survey-likert,27,26,118882,0.0-27.0,p2081,fish,atypical,cuttlefish,cuttlefish_600x600.jpg,0.6,"{""Q0"":3}",4
,3708,survey-likert,28,27,122593,0.0-28.0,p2081,fish,typical,bass,bass_600x600.jpg,0.90625,"{""Q0"":3}",4
,1716,survey-likert,29,28,124312,0.0-29.0,p2081,fish,typical,angelfish,angelfish_600x600.jpg,0.823529411764706,"{""Q0"":3}",4
,1653,survey-likert,30,29,125968,0.0-30.0,p2081,fish,atypical,catfish,catfish_600x600.jpg,0.666666666666667,"{""Q0"":2}",3
,3589,survey-likert,31,30,129561,0.0-31.0,p2081,fish,typical,clownfish,clownfish_600x600.jpg,0.65625,"{""Q0"":4}",5
,2480,survey-likert,32,31,132044,0.0-32.0,p2081,fish,typical,bluetang,bluetang_600x600.jpg,0.764705882352941,"{""Q0"":2}",3
,1846,survey-likert,33,32,133894,0.0-33.0,p2081,fish,typical,sergeantmajor,sergeantmajor_600x600.jpg,0.939393939393939,"{""Q0"":3}",4
,1730,survey-likert,34,33,135627,0.0-34.0,p2081,fish,atypical,lionfish,lionfish_600x600.jpg,0.785714285714286,"{""Q0"":2}",3
"[{""page_index"":0,""viewing_time"":2567}]",2569,instructions,0,NA,2585,0.0-0.0,p210817,NA,NA,,NA,NA,,NA
,7985,survey-likert,1,1,10574,0.0-1.0,p210817,bird,typical,parrot,parrot_600x600.jpg,0.481481481481481,"{""Q0"":4}",5
,3124,survey-likert,2,2,13701,0.0-2.0,p210817,bird,atypical,vulture,vulture_600x600.jpg,0.5,"{""Q0"":4}",5
,2549,survey-likert,3,3,16253,0.0-3.0,p210817,bird,typical,bluejay,bluejay_600x600.jpg,0.307692307692308,"{""Q0"":4}",5
,2998,survey-likert,4,4,19253,0.0-4.0,p210817,bird,atypical,toucan,toucan_600x600.jpg,0.703703703703704,"{""Q0"":4}",5
,4076,survey-likert,5,5,23333,0.0-5.0,p210817,bird,atypical,kookaburra,kookaburra_600x600.jpg,0.814814814814815,"{""Q0"":4}",5
,3133,survey-likert,6,6,26469,0.0-6.0,p210817,bird,atypical,heron,heron_600x600.jpg,0.259259259259259,"{""Q0"":3}",4
,3253,survey-likert,7,7,29725,0.0-7.0,p210817,bird,atypical,turkey,turkey_600x600.jpg,0.769230769230769,"{""Q0"":3}",4
,3517,survey-likert,8,8,33245,0.0-8.0,p210817,bird,atypical,puffin,puffin_600x600.jpg,0.296296296296296,"{""Q0"":3}",4
,2886,survey-likert,9,9,36133,0.0-9.0,p210817,bird,typical,sparrow,sparrow_600x600.jpg,0.703703703703704,"{""Q0"":4}",5
,3020,survey-likert,10,10,39157,0.0-10.0,p210817,bird,atypical,owl,owl_600x600.jpg,0.88,"{""Q0"":4}",5
,2310,survey-likert,11,11,41469,0.0-11.0,p210817,bird,atypical,pelican,pelican_600x600.jpg,0.444444444444444,"{""Q0"":4}",5
,3069,survey-likert,12,12,44541,0.0-12.0,p210817,bird,typical,cedarwaxwing,cedarwaxwing_600x600.jpg,0.72,"{""Q0"":4}",5
,3492,survey-likert,13,13,48036,0.0-13.0,p210817,bird,typical,cardinal,cardinal_600x600.jpg,0.407407407407407,"{""Q0"":4}",5
,5782,survey-likert,14,14,53821,0.0-14.0,p210817,bird,typical,goldfinch,goldfinch_600x600.jpg,0.62962962962963,"{""Q0"":4}",5
,1502,survey-likert,15,15,55324,0.0-15.0,p210817,bird,typical,seagull,seagull_600x600.jpg,0.62962962962963,"{""Q0"":4}",5
,1294,survey-likert,16,16,56621,0.0-16.0,p210817,bird,typical,falcon,falcon_600x600.jpg,0.346153846153846,"{""Q0"":4}",5
,1461,survey-likert,17,17,58084,0.0-17.0,p210817,bird,atypical,kingfisher,kingfisher_600x600.jpg,0.703703703703704,"{""Q0"":4}",5
,2149,survey-likert,18,18,60237,0.0-18.0,p210817,bird,atypical,peacock,peacock_600x600.jpg,0.769230769230769,"{""Q0"":4}",5
,1134,survey-likert,19,19,61374,0.0-19.0,p210817,bird,typical,robin,robin_600x600.jpg,0.730769230769231,"{""Q0"":4}",5
,1108,survey-likert,20,20,62486,0.0-20.0,p210817,bird,typical,pigeon,pigeon_600x600.jpg,0.62962962962963,"{""Q0"":4}",5
"[{""page_index"":0,""viewing_time"":2914}]",2914,instructions,21,NA,65404,0.0-21.0,p210817,NA,NA,,NA,NA,,NA
,2742,survey-likert,22,21,68149,0.0-22.0,p210817,dog,atypical,greyhound,greyhound_600x600.jpg,0.666666666666667,"{""Q0"":4}",5
,1861,survey-likert,23,22,70012,0.0-23.0,p210817,dog,typical,labrador,labrador_600x600.jpg,0.878787878787879,"{""Q0"":4}",5
,1382,survey-likert,24,23,71396,0.0-24.0,p210817,dog,atypical,afghanhound,afghanhound_600x600.jpg,0.787878787878788,"{""Q0"":4}",5
,910,survey-likert,25,24,72308,0.0-25.0,p210817,dog,atypical,sheepdog,sheepdog_600x600.jpg,0.75,"{""Q0"":4}",5
,893,survey-likert,26,25,73204,0.0-26.0,p210817,dog,typical,foxhound,foxhound_600x600.jpg,0.848484848484849,"{""Q0"":4}",5
,886,survey-likert,27,26,74092,0.0-27.0,p210817,dog,atypical,saintbernard,saintbernard_600x600.jpg,0.909090909090909,"{""Q0"":4}",5
,862,survey-likert,28,27,74956,0.0-28.0,p210817,dog,atypical,pug,pug_600x600.jpg,0.441176470588235,"{""Q0"":4}",5
,838,survey-likert,29,28,75797,0.0-29.0,p210817,dog,typical,husky,husky_600x600.jpg,0.454545454545455,"{""Q0"":4}",5
,892,survey-likert,30,29,76692,0.0-30.0,p210817,dog,typical,germanshepherd,germanshepherd_600x600.jpg,0.727272727272727,"{""Q0"":4}",5
,862,survey-likert,31,30,77556,0.0-31.0,p210817,dog,atypical,yorkshireterrier,yorkshireterrier_600x600.jpg,0.878787878787879,"{""Q0"":4}",5
,1030,survey-likert,32,31,78588,0.0-32.0,p210817,dog,typical,dalmatian,dalmatian_600x600.jpg,0.606060606060606,"{""Q0"":4}",5
,837,survey-likert,33,32,79428,0.0-33.0,p210817,dog,typical,beagle,beagle_600x600.jpg,0.818181818181818,"{""Q0"":4}",5
,877,survey-likert,34,33,80308,0.0-34.0,p210817,dog,atypical,chihuahua,chihuahua_600x600.jpg,0.823529411764706,"{""Q0"":4}",5
,893,survey-likert,35,34,81204,0.0-35.0,p210817,dog,typical,goldenretriever,goldenretriever_600x600.jpg,0.909090909090909,"{""Q0"":4}",5
,909,survey-likert,36,35,82116,0.0-36.0,p210817,dog,typical,rottweiler,rottweiler_600x600.jpg,0.647058823529412,"{""Q0"":4}",5
,828,survey-likert,37,36,82948,0.0-37.0,p210817,dog,atypical,bassethound,bassethound_600x600.jpg,0.575757575757576,"{""Q0"":4}",5
"[{""page_index"":0,""viewing_time"":1931}]",1932,instructions,0,NA,1954,0.0-0.0,p216215,NA,NA,,NA,NA,,NA
,8538,survey-likert,1,1,10498,0.0-1.0,p216215,bird,atypical,turkey,turkey_600x600.jpg,0.769230769230769,"{""Q0"":0}",1
,1909,survey-likert,2,2,12416,0.0-2.0,p216215,bird,typical,cedarwaxwing,cedarwaxwing_600x600.jpg,0.72,"{""Q0"":4}",5
,2781,survey-likert,3,3,15201,0.0-3.0,p216215,bird,typical,falcon,falcon_600x600.jpg,0.346153846153846,"{""Q0"":4}",5
,2126,survey-likert,4,4,17329,0.0-4.0,p216215,bird,typical,bluejay,bluejay_600x600.jpg,0.307692307692308,"{""Q0"":3}",4
,1877,survey-likert,5,5,19210,0.0-5.0,p216215,bird,atypical,pelican,pelican_600x600.jpg,0.444444444444444,"{""Q0"":1}",2
,1486,survey-likert,6,6,20699,0.0-6.0,p216215,bird,typical,sparrow,sparrow_600x600.jpg,0.703703703703704,"{""Q0"":4}",5
,2278,survey-likert,7,7,22980,0.0-7.0,p216215,bird,atypical,owl,owl_600x600.jpg,0.88,"{""Q0"":2}",3
,1547,survey-likert,8,8,24528,0.0-8.0,p216215,bird,typical,robin,robin_600x600.jpg,0.730769230769231,"{""Q0"":3}",4
,1526,survey-likert,9,9,26057,0.0-9.0,p216215,bird,typical,parrot,parrot_600x600.jpg,0.481481481481481,"{""Q0"":2}",3
,1555,survey-likert,10,10,27615,0.0-10.0,p216215,bird,atypical,toucan,toucan_600x600.jpg,0.703703703703704,"{""Q0"":1}",2
,1607,survey-likert,11,11,29225,0.0-11.0,p216215,bird,atypical,heron,heron_600x600.jpg,0.259259259259259,"{""Q0"":0}",1
,1439,survey-likert,12,12,30668,0.0-12.0,p216215,bird,atypical,peacock,peacock_600x600.jpg,0.769230769230769,"{""Q0"":0}",1
,1994,survey-likert,13,13,32667,0.0-13.0,p216215,bird,atypical,puffin,puffin_600x600.jpg,0.296296296296296,"{""Q0"":3}",4
,1503,survey-likert,14,14,34173,0.0-14.0,p216215,bird,typical,cardinal,cardinal_600x600.jpg,0.407407407407407,"{""Q0"":3}",4
,2063,survey-likert,15,15,36241,0.0-15.0,p216215,bird,typical,goldfinch,goldfinch_600x600.jpg,0.62962962962963,"{""Q0"":3}",4
,1948,survey-likert,16,16,38191,0.0-16.0,p216215,bird,typical,pigeon,pigeon_600x600.jpg,0.62962962962963,"{""Q0"":4}",5
,1976,survey-likert,17,17,40170,0.0-17.0,p216215,bird,atypical,vulture,vulture_600x600.jpg,0.5,"{""Q0"":1}",2
,2465,survey-likert,18,18,42636,0.0-18.0,p216215,bird,atypical,kingfisher,kingfisher_600x600.jpg,0.703703703703704,"{""Q0"":1}",2
,1331,survey-likert,19,19,43971,0.0-19.0,p216215,bird,atypical,kookaburra,kookaburra_600x600.jpg,0.814814814814815,"{""Q0"":0}",1
,2266,survey-likert,20,20,46240,0.0-20.0,p216215,bird,typical,seagull,seagull_600x600.jpg,0.62962962962963,"{""Q0"":4}",5
"[{""page_index"":0,""viewing_time"":1133}]",1134,instructions,21,NA,47376,0.0-21.0,p216215,NA,NA,,NA,NA,,NA
,2010,survey-likert,22,21,49390,0.0-22.0,p216215,fish,atypical,lionfish,lionfish_600x600.jpg,0.785714285714286,"{""Q0"":0}",1
,1511,survey-likert,23,22,50905,0.0-23.0,p216215,fish,atypical,catfish,catfish_600x600.jpg,0.666666666666667,"{""Q0"":3}",4
,1275,survey-likert,24,23,52183,0.0-24.0,p216215,fish,typical,bass,bass_600x600.jpg,0.90625,"{""Q0"":4}",5
,1514,survey-likert,25,24,53700,0.0-25.0,p216215,fish,atypical,seahorse,seahorse_600x600.jpg,0.8,"{""Q0"":1}",2
,3004,survey-likert,26,25,56708,0.0-26.0,p216215,fish,typical,bluetang,bluetang_600x600.jpg,0.764705882352941,"{""Q0"":0}",1
,1689,survey-likert,27,26,58399,0.0-27.0,p216215,fish,typical,koi,koi_600x600.jpg,0.393939393939394,"{""Q0"":1}",2
,1445,survey-likert,28,27,59846,0.0-28.0,p216215,fish,typical,clownfish,clownfish_600x600.jpg,0.65625,"{""Q0"":4}",5
,1390,survey-likert,29,28,61242,0.0-29.0,p216215,fish,atypical,salmon,salmon_600x600.jpg,0.7,"{""Q0"":2}",3
,1306,survey-likert,30,29,62553,0.0-30.0,p216215,fish,typical,bluegill,bluegill_600x600.jpg,0.882352941176471,"{""Q0"":3}",4
,1480,survey-likert,31,30,64034,0.0-31.0,p216215,fish,atypical,stingray,stingray_600x600.jpg,0.448275862068966,"{""Q0"":3}",4
,1934,survey-likert,32,31,65972,0.0-32.0,p216215,fish,atypical,pufferfish,pufferfish_600x600.jpg,0.344827586206897,"{""Q0"":1}",2
,1342,survey-likert,33,32,67318,0.0-33.0,p216215,fish,typical,sergeantmajor,sergeantmajor_600x600.jpg,0.939393939393939,"{""Q0"":3}",4
,5514,survey-likert,34,33,72837,0.0-34.0,p216215,fish,atypical,cuttlefish,cuttlefish_600x600.jpg,0.6,"{""Q0"":0}",1
,1540,survey-likert,35,34,74384,0.0-35.0,p216215,fish,atypical,sturgeon,sturgeon_600x600.jpg,0.633333333333333,"{""Q0"":1}",2
,1394,survey-likert,36,35,75783,0.0-36.0,p216215,fish,atypical,betafish,betafish_600x600.jpg,0.551724137931034,"{""Q0"":1}",2
,1704,survey-likert,37,36,77491,0.0-37.0,p216215,fish,typical,angelfish,angelfish_600x600.jpg,0.823529411764706,"{""Q0"":3}",4
,1903,survey-likert,38,37,79399,0.0-38.0,p216215,fish,typical,goldfish,goldfish_600x600.jpg,0.515151515151515,"{""Q0"":4}",5
"[{""page_index"":0,""viewing_time"":50214}]",50215,instructions,0,NA,50220,0.0-0.0,p21843,NA,NA,,NA,NA,,NA
,5100,survey-likert,1,1,55325,0.0-1.0,p21843,cat,typical,chartreux,chartreux_600x600.jpg,0.793103448275862,"{""Q0"":3}",4
,3872,survey-likert,2,2,59199,0.0-2.0,p21843,cat,atypical,sandcat,sandcat_600x600.jpg,0.823529411764706,"{""Q0"":4}",5
,3431,survey-likert,3,3,62633,0.0-3.0,p21843,cat,atypical,exotic,exotic_600x600.jpg,0.878787878787879,"{""Q0"":3}",4
,2054,survey-likert,4,4,64689,0.0-4.0,p21843,cat,typical,egyptianmau,egyptianmau_600x600.jpg,0.793103448275862,"{""Q0"":2}",3
,2541,survey-likert,5,5,67233,0.0-5.0,p21843,cat,atypical,oriental,oriental_600x600.jpg,0.909090909090909,"{""Q0"":1}",2
,2235,survey-likert,6,6,69470,0.0-6.0,p21843,cat,atypical,siamese,siamese_600x600.jpg,0.848484848484849,"{""Q0"":3}",4
,2131,survey-likert,7,7,71605,0.0-7.0,p21843,cat,typical,britishshorthair,britishshorthair_600x600.jpg,0.9,"{""Q0"":2}",3
,9757,survey-likert,8,8,81364,0.0-8.0,p21843,cat,typical,tabby,tabby_600x600.jpg,1,"{""Q0"":3}",4
,4354,survey-likert,9,9,85720,0.0-9.0,p21843,cat,typical,toyger,toyger_600x600.jpg,0.933333333333333,"{""Q0"":4}",5
,1575,survey-likert,10,10,87298,0.0-10.0,p21843,cat,typical,shorthair_calico,shorthair_calico_600x600.jpg,0.758620689655172,"{""Q0"":3}",4
,3631,survey-likert,11,11,90932,0.0-11.0,p21843,cat,atypical,sphynx,sphynx_600x600.jpg,0.588235294117647,"{""Q0"":0}",1
,3414,survey-likert,12,12,94351,0.0-12.0,p21843,cat,atypical,americancurl,americancurl_600x600.jpg,0.9375,"{""Q0"":3}",4
,2186,survey-likert,13,13,96541,0.0-13.0,p21843,cat,typical,bengal,bengal_600x600.jpg,0.833333333333333,"{""Q0"":3}",4
,2004,survey-likert,14,14,98546,0.0-14.0,p21843,cat,typical,arabianmau,arabianmau_600x600.jpg,0.9,"{""Q0"":4}",5
,2188,survey-likert,15,15,100739,0.0-15.0,p21843,cat,atypical,siberian,siberian_600x600.jpg,0.878787878787879,"{""Q0"":3}",4
,22989,survey-likert,16,16,123730,0.0-16.0,p21843,cat,atypical,cornishrex,cornishrex_600x600.jpg,0.848484848484849,"{""Q0"":3}",4
,1998,survey-likert,17,17,125730,0.0-17.0,p21843,cat,typical,burmese,burmese_600x600.jpg,0.931034482758621,"{""Q0"":3}",4
"[{""page_index"":0,""viewing_time"":2794}]",2795,instructions,18,NA,128526,0.0-18.0,p21843,NA,NA,,NA,NA,,NA
,2602,survey-likert,19,18,131130,0.0-19.0,p21843,fish,typical,bluetang,bluetang_600x600.jpg,0.764705882352941,"{""Q0"":2}",3
,2230,survey-likert,20,19,133362,0.0-20.0,p21843,fish,atypical,pufferfish,pufferfish_600x600.jpg,0.344827586206897,"{""Q0"":3}",4
,2035,survey-likert,21,20,135400,0.0-21.0,p21843,fish,atypical,lionfish,lionfish_600x600.jpg,0.785714285714286,"{""Q0"":3}",4
,2318,survey-likert,22,21,137721,0.0-22.0,p21843,fish,typical,angelfish,angelfish_600x600.jpg,0.823529411764706,"{""Q0"":3}",4
,1778,survey-likert,23,22,139502,0.0-23.0,p21843,fish,typical,sergeantmajor,sergeantmajor_600x600.jpg,0.939393939393939,"{""Q0"":2}",3
,1647,survey-likert,24,23,141151,0.0-24.0,p21843,fish,atypical,sturgeon,sturgeon_600x600.jpg,0.633333333333333,"{""Q0"":3}",4
,3799,survey-likert,25,24,144954,0.0-25.0,p21843,fish,typical,clownfish,clownfish_600x600.jpg,0.65625,"{""Q0"":4}",5
,2702,survey-likert,26,25,147659,0.0-26.0,p21843,fish,atypical,salmon,salmon_600x600.jpg,0.7,"{""Q0"":2}",3
,1729,survey-likert,27,26,149391,0.0-27.0,p21843,fish,atypical,cuttlefish,cuttlefish_600x600.jpg,0.6,"{""Q0"":3}",4
,1716,survey-likert,28,27,151111,0.0-28.0,p21843,fish,typical,koi,koi_600x600.jpg,0.393939393939394,"{""Q0"":3}",4
,4448,survey-likert,29,28,155563,0.0-29.0,p21843,fish,atypical,seahorse,seahorse_600x600.jpg,0.8,"{""Q0"":3}",4
,3224,survey-likert,30,29,158790,0.0-30.0,p21843,fish,atypical,betafish,betafish_600x600.jpg,0.551724137931034,"{""Q0"":3}",4
,2145,survey-likert,31,30,160938,0.0-31.0,p21843,fish,atypical,stingray,stingray_600x600.jpg,0.448275862068966,"{""Q0"":2}",3
,1713,survey-likert,32,31,162654,0.0-32.0,p21843,fish,typical,bass,bass_600x600.jpg,0.90625,"{""Q0"":3}",4
,28189,survey-likert,33,32,190844,0.0-33.0,p21843,fish,typical,bluegill,bluegill_600x600.jpg,0.882352941176471,"{""Q0"":3}",4
,2748,survey-likert,34,33,193595,0.0-34.0,p21843,fish,atypical,catfish,catfish_600x600.jpg,0.666666666666667,"{""Q0"":4}",5
,16605,survey-likert,35,34,210202,0.0-35.0,p21843,fish,typical,goldfish,goldfish_600x600.jpg,0.515151515151515,"{""Q0"":3}",4
"[{""page_index"":0,""viewing_time"":23046}]",23048,instructions,0,NA,23135,0.0-0.0,p278769,NA,NA,,NA,NA,,NA
,7015,survey-likert,1,1,30159,0.0-1.0,p278769,fish,typical,koi,koi_600x600.jpg,0.393939393939394,"{""Q0"":4}",5
,7654,survey-likert,2,2,37829,0.0-2.0,p278769,fish,atypical,seahorse,seahorse_600x600.jpg,0.8,"{""Q0"":1}",2
,4279,survey-likert,3,3,42125,0.0-3.0,p278769,fish,typical,clownfish,clownfish_600x600.jpg,0.65625,"{""Q0"":4}",5
,5074,survey-likert,4,4,47219,0.0-4.0,p278769,fish,atypical,pufferfish,pufferfish_600x600.jpg,0.344827586206897,"{""Q0"":1}",2
,6859,survey-likert,5,5,54095,0.0-5.0,p278769,fish,atypical,sturgeon,sturgeon_600x600.jpg,0.633333333333333,"{""Q0"":2}",3
,2537,survey-likert,6,6,56654,0.0-6.0,p278769,fish,typical,bass,bass_600x600.jpg,0.90625,"{""Q0"":4}",5
,5668,survey-likert,7,7,62342,0.0-7.0,p278769,fish,atypical,cuttlefish,cuttlefish_600x600.jpg,0.6,"{""Q0"":0}",1
,2184,survey-likert,8,8,64547,0.0-8.0,p278769,fish,typical,goldfish,goldfish_600x600.jpg,0.515151515151515,"{""Q0"":4}",5
,2706,survey-likert,9,9,67271,0.0-9.0,p278769,fish,typical,bluegill,bluegill_600x600.jpg,0.882352941176471,"{""Q0"":4}",5
,3804,survey-likert,10,10,71095,0.0-10.0,p278769,fish,atypical,stingray,stingray_600x600.jpg,0.448275862068966,"{""Q0"":0}",1
,4125,survey-likert,11,11,75237,0.0-11.0,p278769,fish,atypical,salmon,salmon_600x600.jpg,0.7,"{""Q0"":3}",4
,2592,survey-likert,12,12,77849,0.0-12.0,p278769,fish,typical,bluetang,bluetang_600x600.jpg,0.764705882352941,"{""Q0"":3}",4
,4387,survey-likert,13,13,82257,0.0-13.0,p278769,fish,atypical,catfish,catfish_600x600.jpg,0.666666666666667,"{""Q0"":4}",5
,2181,survey-likert,14,14,84458,0.0-14.0,p278769,fish,typical,angelfish,angelfish_600x600.jpg,0.823529411764706,"{""Q0"":3}",4
,2372,survey-likert,15,15,86852,0.0-15.0,p278769,fish,typical,sergeantmajor,sergeantmajor_600x600.jpg,0.939393939393939,"{""Q0"":4}",5
,2346,survey-likert,16,16,89217,0.0-16.0,p278769,fish,atypical,lionfish,lionfish_600x600.jpg,0.785714285714286,"{""Q0"":1}",2
,2388,survey-likert,17,17,91622,0.0-17.0,p278769,fish,atypical,betafish,betafish_600x600.jpg,0.551724137931034,"{""Q0"":3}",4
"[{""page_index"":0,""viewing_time"":4662}]",4663,instructions,18,NA,96299,0.0-18.0,p278769,NA,NA,,NA,NA,,NA
,6059,survey-likert,19,18,102363,0.0-19.0,p278769,dog,typical,germanshepherd,germanshepherd_600x600.jpg,0.727272727272727,"{""Q0"":4}",5
,2486,survey-likert,20,19,104866,0.0-20.0,p278769,dog,typical,rottweiler,rottweiler_600x600.jpg,0.647058823529412,"{""Q0"":4}",5
,2500,survey-likert,21,20,107382,0.0-21.0,p278769,dog,atypical,bassethound,bassethound_600x600.jpg,0.575757575757576,"{""Q0"":3}",4
,2415,survey-likert,22,21,109818,0.0-22.0,p278769,dog,atypical,greyhound,greyhound_600x600.jpg,0.666666666666667,"{""Q0"":3}",4
,2370,survey-likert,23,22,112203,0.0-23.0,p278769,dog,atypical,pug,pug_600x600.jpg,0.441176470588235,"{""Q0"":2}",3
,4107,survey-likert,24,23,116326,0.0-24.0,p278769,dog,typical,labrador,labrador_600x600.jpg,0.878787878787879,"{""Q0"":4}",5
,2400,survey-likert,25,24,118747,0.0-25.0,p278769,dog,typical,goldenretriever,goldenretriever_600x600.jpg,0.909090909090909,"{""Q0"":4}",5
,2695,survey-likert,26,25,121460,0.0-26.0,p278769,dog,atypical,yorkshireterrier,yorkshireterrier_600x600.jpg,0.878787878787879,"{""Q0"":3}",4
,1892,survey-likert,27,26,123373,0.0-27.0,p278769,dog,atypical,saintbernard,saintbernard_600x600.jpg,0.909090909090909,"{""Q0"":3}",4
,2437,survey-likert,28,27,125830,0.0-28.0,p278769,dog,atypical,chihuahua,chihuahua_600x600.jpg,0.823529411764706,"{""Q0"":2}",3
,2744,survey-likert,29,28,128595,0.0-29.0,p278769,dog,typical,foxhound,foxhound_600x600.jpg,0.848484848484849,"{""Q0"":4}",5
,2379,survey-likert,30,29,130995,0.0-30.0,p278769,dog,typical,husky,husky_600x600.jpg,0.454545454545455,"{""Q0"":4}",5
,2507,survey-likert,31,30,133522,0.0-31.0,p278769,dog,atypical,sheepdog,sheepdog_600x600.jpg,0.75,"{""Q0"":1}",2
,2150,survey-likert,32,31,135690,0.0-32.0,p278769,dog,typical,dalmatian,dalmatian_600x600.jpg,0.606060606060606,"{""Q0"":4}",5
,3061,survey-likert,33,32,138770,0.0-33.0,p278769,dog,atypical,afghanhound,afghanhound_600x600.jpg,0.787878787878788,"{""Q0"":1}",2
,3635,survey-likert,34,33,142427,0.0-34.0,p278769,dog,typical,beagle,beagle_600x600.jpg,0.818181818181818,"{""Q0"":4}",5
"[{""page_index"":0,""viewing_time"":35929}]",35930,instructions,0,NA,36029,0.0-0.0,p290167,NA,NA,,NA,NA,,NA
,40877,survey-likert,1,1,76910,0.0-1.0,p290167,dog,typical,foxhound,foxhound_600x600.jpg,0.848484848484849,"{""Q0"":2}",3
,3618,survey-likert,2,2,80532,0.0-2.0,p290167,dog,typical,goldenretriever,goldenretriever_600x600.jpg,0.909090909090909,"{""Q0"":3}",4
,2868,survey-likert,3,3,83403,0.0-3.0,p290167,dog,atypical,chihuahua,chihuahua_600x600.jpg,0.823529411764706,"{""Q0"":2}",3
,7570,survey-likert,4,4,90978,0.0-4.0,p290167,dog,atypical,greyhound,greyhound_600x600.jpg,0.666666666666667,"{""Q0"":1}",2
,2164,survey-likert,5,5,93146,0.0-5.0,p290167,dog,atypical,pug,pug_600x600.jpg,0.441176470588235,"{""Q0"":3}",4
,2212,survey-likert,6,6,95362,0.0-6.0,p290167,dog,atypical,sheepdog,sheepdog_600x600.jpg,0.75,"{""Q0"":1}",2
,2836,survey-likert,7,7,98201,0.0-7.0,p290167,dog,typical,germanshepherd,germanshepherd_600x600.jpg,0.727272727272727,"{""Q0"":4}",5
,2053,survey-likert,8,8,100258,0.0-8.0,p290167,dog,typical,beagle,beagle_600x600.jpg,0.818181818181818,"{""Q0"":4}",5
,2259,survey-likert,9,9,102520,0.0-9.0,p290167,dog,atypical,saintbernard,saintbernard_600x600.jpg,0.909090909090909,"{""Q0"":1}",2
,2686,survey-likert,10,10,105209,0.0-10.0,p290167,dog,typical,labrador,labrador_600x600.jpg,0.878787878787879,"{""Q0"":2}",3
,1907,survey-likert,11,11,107119,0.0-11.0,p290167,dog,atypical,afghanhound,afghanhound_600x600.jpg,0.787878787878788,"{""Q0"":0}",1
,2059,survey-likert,12,12,109183,0.0-12.0,p290167,dog,typical,husky,husky_600x600.jpg,0.454545454545455,"{""Q0"":3}",4
,10363,survey-likert,13,13,119550,0.0-13.0,p290167,dog,typical,dalmatian,dalmatian_600x600.jpg,0.606060606060606,"{""Q0"":2}",3
,3763,survey-likert,14,14,123317,0.0-14.0,p290167,dog,atypical,yorkshireterrier,yorkshireterrier_600x600.jpg,0.878787878787879,"{""Q0"":3}",4
,2684,survey-likert,15,15,126005,0.0-15.0,p290167,dog,typical,rottweiler,rottweiler_600x600.jpg,0.647058823529412,"{""Q0"":1}",2
,2404,survey-likert,16,16,128413,0.0-16.0,p290167,dog,atypical,bassethound,bassethound_600x600.jpg,0.575757575757576,"{""Q0"":0}",1
"[{""page_index"":0,""viewing_time"":2549}]",2549,instructions,17,NA,130963,0.0-17.0,p290167,NA,NA,,NA,NA,,NA
,2965,survey-likert,18,17,133932,0.0-18.0,p290167,bird,typical,parrot,parrot_600x600.jpg,0.481481481481481,"{""Q0"":2}",3
,2894,survey-likert,19,18,136829,0.0-19.0,p290167,bird,atypical,vulture,vulture_600x600.jpg,0.5,"{""Q0"":2}",3
,3289,survey-likert,20,19,140124,0.0-20.0,p290167,bird,typical,sparrow,sparrow_600x600.jpg,0.703703703703704,"{""Q0"":3}",4
,11138,survey-likert,21,20,151266,0.0-21.0,p290167,bird,typical,robin,robin_600x600.jpg,0.730769230769231,"{""Q0"":1}",2
,2061,survey-likert,22,21,153330,0.0-22.0,p290167,bird,typical,cardinal,cardinal_600x600.jpg,0.407407407407407,"{""Q0"":3}",4
,1939,survey-likert,23,22,155274,0.0-23.0,p290167,bird,atypical,owl,owl_600x600.jpg,0.88,"{""Q0"":4}",5
,2163,survey-likert,24,23,157442,0.0-24.0,p290167,bird,atypical,pelican,pelican_600x600.jpg,0.444444444444444,"{""Q0"":1}",2
,1974,survey-likert,25,24,159419,0.0-25.0,p290167,bird,atypical,heron,heron_600x600.jpg,0.259259259259259,"{""Q0"":2}",3
,2250,survey-likert,26,25,161673,0.0-26.0,p290167,bird,atypical,puffin,puffin_600x600.jpg,0.296296296296296,"{""Q0"":0}",1
,4027,survey-likert,27,26,165704,0.0-27.0,p290167,bird,typical,bluejay,bluejay_600x600.jpg,0.307692307692308,"{""Q0"":2}",3
,3206,survey-likert,28,27,168912,0.0-28.0,p290167,bird,typical,seagull,seagull_600x600.jpg,0.62962962962963,"{""Q0"":3}",4
,2308,survey-likert,29,28,171224,0.0-29.0,p290167,bird,atypical,turkey,turkey_600x600.jpg,0.769230769230769,"{""Q0"":1}",2
,2306,survey-likert,30,29,173535,0.0-30.0,p290167,bird,typical,pigeon,pigeon_600x600.jpg,0.62962962962963,"{""Q0"":4}",5
,8115,survey-likert,31,30,181654,0.0-31.0,p290167,bird,typical,falcon,falcon_600x600.jpg,0.346153846153846,"{""Q0"":2}",3
,1844,survey-likert,32,31,183502,0.0-32.0,p290167,bird,typical,goldfinch,goldfinch_600x600.jpg,0.62962962962963,"{""Q0"":1}",2
,2006,survey-likert,33,32,185510,0.0-33.0,p290167,bird,atypical,kookaburra,kookaburra_600x600.jpg,0.814814814814815,"{""Q0"":0}",1
,3491,survey-likert,34,33,189005,0.0-34.0,p290167,bird,atypical,peacock,peacock_600x600.jpg,0.769230769230769,"{""Q0"":2}",3
,2364,survey-likert,35,34,191373,0.0-35.0,p290167,bird,atypical,kingfisher,kingfisher_600x600.jpg,0.703703703703704,"{""Q0"":1}",2
,6179,survey-likert,36,35,197558,0.0-36.0,p290167,bird,atypical,toucan,toucan_600x600.jpg,0.703703703703704,"{""Q0"":0}",1
,2113,survey-likert,37,36,199677,0.0-37.0,p290167,bird,typical,cedarwaxwing,cedarwaxwing_600x600.jpg,0.72,"{""Q0"":1}",2
"[{""page_index"":0,""viewing_time"":19187}]",19188,instructions,0,NA,19204,0.0-0.0,p293092,NA,NA,,NA,NA,,NA
,11788,survey-likert,1,1,30994,0.0-1.0,p293092,bird,typical,sparrow,sparrow_600x600.jpg,0.703703703703704,"{""Q0"":4}",5
,2975,survey-likert,2,2,33972,0.0-2.0,p293092,bird,typical,seagull,seagull_600x600.jpg,0.62962962962963,"{""Q0"":3}",4
,2069,survey-likert,3,3,36042,0.0-3.0,p293092,bird,atypical,kingfisher,kingfisher_600x600.jpg,0.703703703703704,"{""Q0"":2}",3
,3404,survey-likert,4,4,39447,0.0-4.0,p293092,bird,atypical,toucan,toucan_600x600.jpg,0.703703703703704,"{""Q0"":1}",2
,2605,survey-likert,5,5,42055,0.0-5.0,p293092,bird,typical,cedarwaxwing,cedarwaxwing_600x600.jpg,0.72,"{""Q0"":4}",5
,3726,survey-likert,6,6,45782,0.0-6.0,p293092,bird,atypical,vulture,vulture_600x600.jpg,0.5,"{""Q0"":0}",1
,2245,survey-likert,7,7,48028,0.0-7.0,p293092,bird,atypical,puffin,puffin_600x600.jpg,0.296296296296296,"{""Q0"":1}",2
,2161,survey-likert,8,8,50190,0.0-8.0,p293092,bird,atypical,turkey,turkey_600x600.jpg,0.769230769230769,"{""Q0"":0}",1
,1995,survey-likert,9,9,52186,0.0-9.0,p293092,bird,typical,robin,robin_600x600.jpg,0.730769230769231,"{""Q0"":4}",5
,4761,survey-likert,10,10,56949,0.0-10.0,p293092,bird,atypical,kookaburra,kookaburra_600x600.jpg,0.814814814814815,"{""Q0"":2}",3
,3003,survey-likert,11,11,59954,0.0-11.0,p293092,bird,typical,goldfinch,goldfinch_600x600.jpg,0.62962962962963,"{""Q0"":4}",5
,3198,survey-likert,12,12,63153,0.0-12.0,p293092,bird,typical,parrot,parrot_600x600.jpg,0.481481481481481,"{""Q0"":1}",2
,2100,survey-likert,13,13,65254,0.0-13.0,p293092,bird,typical,cardinal,cardinal_600x600.jpg,0.407407407407407,"{""Q0"":3}",4
,3641,survey-likert,14,14,68896,0.0-14.0,p293092,bird,atypical,pelican,pelican_600x600.jpg,0.444444444444444,"{""Q0"":0}",1
,2203,survey-likert,15,15,71101,0.0-15.0,p293092,bird,atypical,owl,owl_600x600.jpg,0.88,"{""Q0"":0}",1
,2513,survey-likert,16,16,73616,0.0-16.0,p293092,bird,typical,falcon,falcon_600x600.jpg,0.346153846153846,"{""Q0"":3}",4
,2357,survey-likert,17,17,75974,0.0-17.0,p293092,bird,typical,bluejay,bluejay_600x600.jpg,0.307692307692308,"{""Q0"":4}",5
,1977,survey-likert,18,18,77953,0.0-18.0,p293092,bird,atypical,heron,heron_600x600.jpg,0.259259259259259,"{""Q0"":0}",1
,3020,survey-likert,19,19,80974,0.0-19.0,p293092,bird,typical,pigeon,pigeon_600x600.jpg,0.62962962962963,"{""Q0"":2}",3
,1842,survey-likert,20,20,82819,0.0-20.0,p293092,bird,atypical,peacock,peacock_600x600.jpg,0.769230769230769,"{""Q0"":0}",1
"[{""page_index"":0,""viewing_time"":3099}]",3100,instructions,21,NA,85919,0.0-21.0,p293092,NA,NA,,NA,NA,,NA
,4709,survey-likert,22,21,90629,0.0-22.0,p293092,cat,atypical,americancurl,americancurl_600x600.jpg,0.9375,"{""Q0"":4}",5
,3321,survey-likert,23,22,93952,0.0-23.0,p293092,cat,typical,shorthair_calico,shorthair_calico_600x600.jpg,0.758620689655172,"{""Q0"":4}",5
,2063,survey-likert,24,23,96017,0.0-24.0,p293092,cat,typical,toyger,toyger_600x600.jpg,0.933333333333333,"{""Q0"":4}",5
,2041,survey-likert,25,24,98060,0.0-25.0,p293092,cat,typical,tabby,tabby_600x600.jpg,1,"{""Q0"":4}",5
,1945,survey-likert,26,25,100006,0.0-26.0,p293092,cat,typical,burmese,burmese_600x600.jpg,0.931034482758621,"{""Q0"":3}",4
,3669,survey-likert,27,26,103677,0.0-27.0,p293092,cat,atypical,sphynx,sphynx_600x600.jpg,0.588235294117647,"{""Q0"":0}",1
,1773,survey-likert,28,27,105451,0.0-28.0,p293092,cat,typical,arabianmau,arabianmau_600x600.jpg,0.9,"{""Q0"":4}",5
,5983,survey-likert,29,28,111436,0.0-29.0,p293092,cat,atypical,sandcat,sandcat_600x600.jpg,0.823529411764706,"{""Q0"":2}",3
,3477,survey-likert,30,29,114914,0.0-30.0,p293092,cat,typical,britishshorthair,britishshorthair_600x600.jpg,0.9,"{""Q0"":4}",5
,3938,survey-likert,31,30,118853,0.0-31.0,p293092,cat,typical,chartreux,chartreux_600x600.jpg,0.793103448275862,"{""Q0"":3}",4
,2438,survey-likert,32,31,121292,0.0-32.0,p293092,cat,atypical,oriental,oriental_600x600.jpg,0.909090909090909,"{""Q0"":0}",1
,2727,survey-likert,33,32,124022,0.0-33.0,p293092,cat,atypical,exotic,exotic_600x600.jpg,0.878787878787879,"{""Q0"":1}",2
,2476,survey-likert,34,33,126500,0.0-34.0,p293092,cat,atypical,cornishrex,cornishrex_600x600.jpg,0.848484848484849,"{""Q0"":1}",2
,2674,survey-likert,35,34,129176,0.0-35.0,p293092,cat,atypical,siberian,siberian_600x600.jpg,0.878787878787879,"{""Q0"":3}",4
,1845,survey-likert,36,35,131022,0.0-36.0,p293092,cat,atypical,siamese,siamese_600x600.jpg,0.848484848484849,"{""Q0"":2}",3
,5483,survey-likert,37,36,136507,0.0-37.0,p293092,cat,typical,bengal,bengal_600x600.jpg,0.833333333333333,"{""Q0"":1}",2
,3624,survey-likert,38,37,140133,0.0-38.0,p293092,cat,typical,egyptianmau,egyptianmau_600x600.jpg,0.793103448275862,"{""Q0"":1}",2
"[{""page_index"":0,""viewing_time"":11356}]",11356,instructions,0,NA,11370,0.0-0.0,p30271,NA,NA,,NA,NA,,NA
,12527,survey-likert,1,1,23899,0.0-1.0,p30271,fish,typical,bluegill,bluegill_600x600.jpg,0.882352941176471,"{""Q0"":4}",5
,2806,survey-likert,2,2,26707,0.0-2.0,p30271,fish,atypical,sturgeon,sturgeon_600x600.jpg,0.633333333333333,"{""Q0"":1}",2
,2608,survey-likert,3,3,29318,0.0-3.0,p30271,fish,atypical,seahorse,seahorse_600x600.jpg,0.8,"{""Q0"":0}",1
,2807,survey-likert,4,4,32128,0.0-4.0,p30271,fish,atypical,catfish,catfish_600x600.jpg,0.666666666666667,"{""Q0"":1}",2
,2645,survey-likert,5,5,34775,0.0-5.0,p30271,fish,atypical,lionfish,lionfish_600x600.jpg,0.785714285714286,"{""Q0"":0}",1
,3668,survey-likert,6,6,38445,0.0-6.0,p30271,fish,typical,angelfish,angelfish_600x600.jpg,0.823529411764706,"{""Q0"":1}",2
,2459,survey-likert,7,7,40907,0.0-7.0,p30271,fish,typical,bass,bass_600x600.jpg,0.90625,"{""Q0"":4}",5
,2664,survey-likert,8,8,43573,0.0-8.0,p30271,fish,atypical,pufferfish,pufferfish_600x600.jpg,0.344827586206897,"{""Q0"":1}",2
,2410,survey-likert,9,9,45986,0.0-9.0,p30271,fish,atypical,betafish,betafish_600x600.jpg,0.551724137931034,"{""Q0"":0}",1
,2301,survey-likert,10,10,48289,0.0-10.0,p30271,fish,atypical,stingray,stingray_600x600.jpg,0.448275862068966,"{""Q0"":2}",3
,2578,survey-likert,11,11,50869,0.0-11.0,p30271,fish,atypical,cuttlefish,cuttlefish_600x600.jpg,0.6,"{""Q0"":1}",2
,2736,survey-likert,12,12,53608,0.0-12.0,p30271,fish,atypical,salmon,salmon_600x600.jpg,0.7,"{""Q0"":4}",5
,2172,survey-likert,13,13,55783,0.0-13.0,p30271,fish,typical,sergeantmajor,sergeantmajor_600x600.jpg,0.939393939393939,"{""Q0"":2}",3
,2184,survey-likert,14,14,57969,0.0-14.0,p30271,fish,typical,bluetang,bluetang_600x600.jpg,0.764705882352941,"{""Q0"":1}",2
,2381,survey-likert,15,15,60352,0.0-15.0,p30271,fish,typical,koi,koi_600x600.jpg,0.393939393939394,"{""Q0"":2}",3
,2531,survey-likert,16,16,62885,0.0-16.0,p30271,fish,typical,goldfish,goldfish_600x600.jpg,0.515151515151515,"{""Q0"":4}",5
,4803,survey-likert,17,17,67690,0.0-17.0,p30271,fish,typical,clownfish,clownfish_600x600.jpg,0.65625,"{""Q0"":2}",3
"[{""page_index"":0,""viewing_time"":5133}]",5133,instructions,18,NA,72825,0.0-18.0,p30271,NA,NA,,NA,NA,,NA
,11004,survey-likert,19,18,83830,0.0-19.0,p30271,cat,atypical,sandcat,sandcat_600x600.jpg,0.823529411764706,"{""Q0"":3}",4
,2740,survey-likert,20,19,86573,0.0-20.0,p30271,cat,atypical,oriental,oriental_600x600.jpg,0.909090909090909,"{""Q0"":1}",2
,2118,survey-likert,21,20,88694,0.0-21.0,p30271,cat,typical,britishshorthair,britishshorthair_600x600.jpg,0.9,"{""Q0"":4}",5
,2048,survey-likert,22,21,90745,0.0-22.0,p30271,cat,atypical,siamese,siamese_600x600.jpg,0.848484848484849,"{""Q0"":4}",5
,3197,survey-likert,23,22,93946,0.0-23.0,p30271,cat,typical,shorthair_calico,shorthair_calico_600x600.jpg,0.758620689655172,"{""Q0"":4}",5
,2225,survey-likert,24,23,96173,0.0-24.0,p30271,cat,typical,egyptianmau,egyptianmau_600x600.jpg,0.793103448275862,"{""Q0"":4}",5
,3151,survey-likert,25,24,99328,0.0-25.0,p30271,cat,typical,toyger,toyger_600x600.jpg,0.933333333333333,"{""Q0"":4}",5
,2379,survey-likert,26,25,101709,0.0-26.0,p30271,cat,typical,tabby,tabby_600x600.jpg,1,"{""Q0"":4}",5
,2170,survey-likert,27,26,103881,0.0-27.0,p30271,cat,typical,chartreux,chartreux_600x600.jpg,0.793103448275862,"{""Q0"":3}",4
,2251,survey-likert,28,27,106134,0.0-28.0,p30271,cat,atypical,exotic,exotic_600x600.jpg,0.878787878787879,"{""Q0"":1}",2
,2250,survey-likert,29,28,108388,0.0-29.0,p30271,cat,typical,arabianmau,arabianmau_600x600.jpg,0.9,"{""Q0"":2}",3
,3176,survey-likert,30,29,111566,0.0-30.0,p30271,cat,typical,bengal,bengal_600x600.jpg,0.833333333333333,"{""Q0"":3}",4
,2432,survey-likert,31,30,114002,0.0-31.0,p30271,cat,typical,burmese,burmese_600x600.jpg,0.931034482758621,"{""Q0"":1}",2
,2847,survey-likert,32,31,116852,0.0-32.0,p30271,cat,atypical,cornishrex,cornishrex_600x600.jpg,0.848484848484849,"{""Q0"":0}",1
,2372,survey-likert,33,32,119227,0.0-33.0,p30271,cat,atypical,sphynx,sphynx_600x600.jpg,0.588235294117647,"{""Q0"":0}",1
,4213,survey-likert,34,33,123443,0.0-34.0,p30271,cat,atypical,americancurl,americancurl_600x600.jpg,0.9375,"{""Q0"":4}",5
,2613,survey-likert,35,34,126059,0.0-35.0,p30271,cat,atypical,siberian,siberian_600x600.jpg,0.878787878787879,"{""Q0"":2}",3
"[{""page_index"":0,""viewing_time"":8075}]",8076,instructions,0,NA,8109,0.0-0.0,p305283,NA,NA,,NA,NA,,NA
,5400,survey-likert,1,1,13514,0.0-1.0,p305283,bird,atypical,toucan,toucan_600x600.jpg,0.703703703703704,"{""Q0"":1}",2
,4800,survey-likert,2,2,18316,0.0-2.0,p305283,bird,typical,pigeon,pigeon_600x600.jpg,0.62962962962963,"{""Q0"":4}",5
,4050,survey-likert,3,3,22369,0.0-3.0,p305283,bird,typical,falcon,falcon_600x600.jpg,0.346153846153846,"{""Q0"":3}",4
,4998,survey-likert,4,4,27370,0.0-4.0,p305283,bird,typical,bluejay,bluejay_600x600.jpg,0.307692307692308,"{""Q0"":4}",5
,6447,survey-likert,5,5,33820,0.0-5.0,p305283,bird,atypical,peacock,peacock_600x600.jpg,0.769230769230769,"{""Q0"":2}",3
,9120,survey-likert,6,6,42943,0.0-6.0,p305283,bird,atypical,kookaburra,kookaburra_600x600.jpg,0.814814814814815,"{""Q0"":1}",2
,7985,survey-likert,7,7,50932,0.0-7.0,p305283,bird,typical,parrot,parrot_600x600.jpg,0.481481481481481,"{""Q0"":4}",5
,2541,survey-likert,8,8,53477,0.0-8.0,p305283,bird,typical,cardinal,cardinal_600x600.jpg,0.407407407407407,"{""Q0"":4}",5
,5371,survey-likert,9,9,58851,0.0-9.0,p305283,bird,typical,robin,robin_600x600.jpg,0.730769230769231,"{""Q0"":4}",5
,2674,survey-likert,10,10,61529,0.0-10.0,p305283,bird,typical,sparrow,sparrow_600x600.jpg,0.703703703703704,"{""Q0"":4}",5
,4096,survey-likert,11,11,65627,0.0-11.0,p305283,bird,typical,goldfinch,goldfinch_600x600.jpg,0.62962962962963,"{""Q0"":3}",4
,3500,survey-likert,12,12,69129,0.0-12.0,p305283,bird,typical,cedarwaxwing,cedarwaxwing_600x600.jpg,0.72,"{""Q0"":4}",5
,2660,survey-likert,13,13,71791,0.0-13.0,p305283,bird,atypical,puffin,puffin_600x600.jpg,0.296296296296296,"{""Q0"":2}",3
,3717,survey-likert,14,14,75511,0.0-14.0,p305283,bird,atypical,vulture,vulture_600x600.jpg,0.5,"{""Q0"":3}",4
,2897,survey-likert,15,15,78411,0.0-15.0,p305283,bird,atypical,pelican,pelican_600x600.jpg,0.444444444444444,"{""Q0"":3}",4
,2038,survey-likert,16,16,80455,0.0-16.0,p305283,bird,atypical,heron,heron_600x600.jpg,0.259259259259259,"{""Q0"":3}",4
,2131,survey-likert,17,17,82589,0.0-17.0,p305283,bird,atypical,turkey,turkey_600x600.jpg,0.769230769230769,"{""Q0"":3}",4
,2295,survey-likert,18,18,84887,0.0-18.0,p305283,bird,typical,seagull,seagull_600x600.jpg,0.62962962962963,"{""Q0"":3}",4
,2004,survey-likert,19,19,86894,0.0-19.0,p305283,bird,atypical,kingfisher,kingfisher_600x600.jpg,0.703703703703704,"{""Q0"":3}",4
,2094,survey-likert,20,20,88993,0.0-20.0,p305283,bird,atypical,owl,owl_600x600.jpg,0.88,"{""Q0"":3}",4
"[{""page_index"":0,""viewing_time"":3908}]",3908,instructions,21,NA,92902,0.0-21.0,p305283,NA,NA,,NA,NA,,NA
,5003,survey-likert,22,21,97908,0.0-22.0,p305283,fish,atypical,sturgeon,sturgeon_600x600.jpg,0.633333333333333,"{""Q0"":1}",2
,2860,survey-likert,23,22,100770,0.0-23.0,p305283,fish,atypical,pufferfish,pufferfish_600x600.jpg,0.344827586206897,"{""Q0"":1}",2
,2620,survey-likert,24,23,103392,0.0-24.0,p305283,fish,typical,angelfish,angelfish_600x600.jpg,0.823529411764706,"{""Q0"":3}",4
,3351,survey-likert,25,24,106746,0.0-25.0,p305283,fish,atypical,salmon,salmon_600x600.jpg,0.7,"{""Q0"":3}",4
,2332,survey-likert,26,25,109080,0.0-26.0,p305283,fish,atypical,stingray,stingray_600x600.jpg,0.448275862068966,"{""Q0"":2}",3
,2783,survey-likert,27,26,111865,0.0-27.0,p305283,fish,typical,goldfish,goldfish_600x600.jpg,0.515151515151515,"{""Q0"":4}",5
,2354,survey-likert,28,27,114222,0.0-28.0,p305283,fish,typical,sergeantmajor,sergeantmajor_600x600.jpg,0.939393939393939,"{""Q0"":4}",5
,2737,survey-likert,29,28,116962,0.0-29.0,p305283,fish,atypical,betafish,betafish_600x600.jpg,0.551724137931034,"{""Q0"":2}",3
,4073,survey-likert,30,29,121038,0.0-30.0,p305283,fish,typical,clownfish,clownfish_600x600.jpg,0.65625,"{""Q0"":4}",5
,3185,survey-likert,31,30,124226,0.0-31.0,p305283,fish,atypical,catfish,catfish_600x600.jpg,0.666666666666667,"{""Q0"":4}",5
,2329,survey-likert,32,31,126558,0.0-32.0,p305283,fish,typical,bluegill,bluegill_600x600.jpg,0.882352941176471,"{""Q0"":4}",5
,2479,survey-likert,33,32,129040,0.0-33.0,p305283,fish,typical,bass,bass_600x600.jpg,0.90625,"{""Q0"":4}",5
,2631,survey-likert,34,33,131674,0.0-34.0,p305283,fish,atypical,lionfish,lionfish_600x600.jpg,0.785714285714286,"{""Q0"":2}",3
,2922,survey-likert,35,34,134599,0.0-35.0,p305283,fish,typical,bluetang,bluetang_600x600.jpg,0.764705882352941,"{""Q0"":2}",3
,4084,survey-likert,36,35,138685,0.0-36.0,p305283,fish,atypical,cuttlefish,cuttlefish_600x600.jpg,0.6,"{""Q0"":2}",3
,2836,survey-likert,37,36,141523,0.0-37.0,p305283,fish,atypical,seahorse,seahorse_600x600.jpg,0.8,"{""Q0"":3}",4
,2276,survey-likert,38,37,143802,0.0-38.0,p305283,fish,typical,koi,koi_600x600.jpg,0.393939393939394,"{""Q0"":3}",4
"[{""page_index"":0,""viewing_time"":3165}]",3165,instructions,0,NA,3201,0.0-0.0,p312711,NA,NA,,NA,NA,,NA
,4793,survey-likert,1,1,7997,0.0-1.0,p312711,bird,atypical,puffin,puffin_600x600.jpg,0.296296296296296,"{""Q0"":1}",2
,2603,survey-likert,2,2,10611,0.0-2.0,p312711,bird,atypical,turkey,turkey_600x600.jpg,0.769230769230769,"{""Q0"":1}",2
,2235,survey-likert,3,3,12848,0.0-3.0,p312711,bird,typical,pigeon,pigeon_600x600.jpg,0.62962962962963,"{""Q0"":4}",5
,2724,survey-likert,4,4,15574,0.0-4.0,p312711,bird,atypical,kookaburra,kookaburra_600x600.jpg,0.814814814814815,"{""Q0"":1}",2
,2510,survey-likert,5,5,18086,0.0-5.0,p312711,bird,atypical,heron,heron_600x600.jpg,0.259259259259259,"{""Q0"":3}",4
,2614,survey-likert,6,6,20701,0.0-6.0,p312711,bird,typical,parrot,parrot_600x600.jpg,0.481481481481481,"{""Q0"":4}",5
,2268,survey-likert,7,7,22972,0.0-7.0,p312711,bird,typical,sparrow,sparrow_600x600.jpg,0.703703703703704,"{""Q0"":4}",5
,3208,survey-likert,8,8,26183,0.0-8.0,p312711,bird,atypical,peacock,peacock_600x600.jpg,0.769230769230769,"{""Q0"":2}",3
,2784,survey-likert,9,9,28969,0.0-9.0,p312711,bird,typical,robin,robin_600x600.jpg,0.730769230769231,"{""Q0"":4}",5
,3406,survey-likert,10,10,32377,0.0-10.0,p312711,bird,atypical,toucan,toucan_600x600.jpg,0.703703703703704,"{""Q0"":2}",3
,2391,survey-likert,11,11,34771,0.0-11.0,p312711,bird,typical,cedarwaxwing,cedarwaxwing_600x600.jpg,0.72,"{""Q0"":4}",5
,3503,survey-likert,12,12,38275,0.0-12.0,p312711,bird,atypical,pelican,pelican_600x600.jpg,0.444444444444444,"{""Q0"":2}",3
,2965,survey-likert,13,13,41241,0.0-13.0,p312711,bird,atypical,vulture,vulture_600x600.jpg,0.5,"{""Q0"":1}",2
,3939,survey-likert,14,14,45183,0.0-14.0,p312711,bird,typical,bluejay,bluejay_600x600.jpg,0.307692307692308,"{""Q0"":3}",4
,2763,survey-likert,15,15,47947,0.0-15.0,p312711,bird,atypical,kingfisher,kingfisher_600x600.jpg,0.703703703703704,"{""Q0"":3}",4
,2763,survey-likert,16,16,50711,0.0-16.0,p312711,bird,typical,goldfinch,goldfinch_600x600.jpg,0.62962962962963,"{""Q0"":4}",5
,3946,survey-likert,17,17,54659,0.0-17.0,p312711,bird,atypical,owl,owl_600x600.jpg,0.88,"{""Q0"":2}",3
,3509,survey-likert,18,18,58169,0.0-18.0,p312711,bird,typical,seagull,seagull_600x600.jpg,0.62962962962963,"{""Q0"":2}",3
,4842,survey-likert,19,19,63013,0.0-19.0,p312711,bird,typical,cardinal,cardinal_600x600.jpg,0.407407407407407,"{""Q0"":4}",5
,3234,survey-likert,20,20,66249,0.0-20.0,p312711,bird,typical,falcon,falcon_600x600.jpg,0.346153846153846,"{""Q0"":2}",3
"[{""page_index"":0,""viewing_time"":1536}]",1537,instructions,21,NA,67787,0.0-21.0,p312711,NA,NA,,NA,NA,,NA
,5030,survey-likert,22,21,72819,0.0-22.0,p312711,dog,atypical,chihuahua,chihuahua_600x600.jpg,0.823529411764706,"{""Q0"":4}",5
,2685,survey-likert,23,22,75505,0.0-23.0,p312711,dog,typical,dalmatian,dalmatian_600x600.jpg,0.606060606060606,"{""Q0"":3}",4
,2119,survey-likert,24,23,77625,0.0-24.0,p312711,dog,atypical,saintbernard,saintbernard_600x600.jpg,0.909090909090909,"{""Q0"":3}",4
,3795,survey-likert,25,24,81423,0.0-25.0,p312711,dog,typical,rottweiler,rottweiler_600x600.jpg,0.647058823529412,"{""Q0"":4}",5
,4175,survey-likert,26,25,85603,0.0-26.0,p312711,dog,atypical,sheepdog,sheepdog_600x600.jpg,0.75,"{""Q0"":0}",1
,4262,survey-likert,27,26,89870,0.0-27.0,p312711,dog,atypical,yorkshireterrier,yorkshireterrier_600x600.jpg,0.878787878787879,"{""Q0"":4}",5
,7513,survey-likert,28,27,97385,0.0-28.0,p312711,dog,atypical,greyhound,greyhound_600x600.jpg,0.666666666666667,"{""Q0"":2}",3
,2682,survey-likert,29,28,100069,0.0-29.0,p312711,dog,typical,labrador,labrador_600x600.jpg,0.878787878787879,"{""Q0"":4}",5
,3688,survey-likert,30,29,103759,0.0-30.0,p312711,dog,typical,goldenretriever,goldenretriever_600x600.jpg,0.909090909090909,"{""Q0"":4}",5
,3082,survey-likert,31,30,106842,0.0-31.0,p312711,dog,typical,beagle,beagle_600x600.jpg,0.818181818181818,"{""Q0"":4}",5
,3141,survey-likert,32,31,109985,0.0-32.0,p312711,dog,typical,foxhound,foxhound_600x600.jpg,0.848484848484849,"{""Q0"":3}",4
,2613,survey-likert,33,32,112599,0.0-33.0,p312711,dog,atypical,afghanhound,afghanhound_600x600.jpg,0.787878787878788,"{""Q0"":0}",1
,6893,survey-likert,34,33,119494,0.0-34.0,p312711,dog,atypical,bassethound,bassethound_600x600.jpg,0.575757575757576,"{""Q0"":1}",2
,4172,survey-likert,35,34,123670,0.0-35.0,p312711,dog,typical,germanshepherd,germanshepherd_600x600.jpg,0.727272727272727,"{""Q0"":3}",4
,3153,survey-likert,36,35,126825,0.0-36.0,p312711,dog,atypical,pug,pug_600x600.jpg,0.441176470588235,"{""Q0"":3}",4
,2408,survey-likert,37,36,129234,0.0-37.0,p312711,dog,typical,husky,husky_600x600.jpg,0.454545454545455,"{""Q0"":3}",4
"[{""page_index"":0,""viewing_time"":21177}]",21179,instructions,0,NA,21201,0.0-0.0,p318632,NA,NA,,NA,NA,,NA
,8605,survey-likert,1,1,29813,0.0-1.0,p318632,bird,atypical,vulture,vulture_600x600.jpg,0.5,"{""Q0"":2}",3
,5251,survey-likert,2,2,35131,0.0-2.0,p318632,bird,atypical,kingfisher,kingfisher_600x600.jpg,0.703703703703704,"{""Q0"":3}",4
,7279,survey-likert,3,3,42457,0.0-3.0,p318632,bird,typical,seagull,seagull_600x600.jpg,0.62962962962963,"{""Q0"":4}",5
,6195,survey-likert,4,4,48700,0.0-4.0,p318632,bird,atypical,kookaburra,kookaburra_600x600.jpg,0.814814814814815,"{""Q0"":1}",2
,5168,survey-likert,5,5,53927,0.0-5.0,p318632,bird,atypical,peacock,peacock_600x600.jpg,0.769230769230769,"{""Q0"":1}",2
,3553,survey-likert,6,6,57524,0.0-6.0,p318632,bird,typical,bluejay,bluejay_600x600.jpg,0.307692307692308,"{""Q0"":4}",5
,3349,survey-likert,7,7,60917,0.0-7.0,p318632,bird,atypical,owl,owl_600x600.jpg,0.88,"{""Q0"":2}",3
,4054,survey-likert,8,8,65017,0.0-8.0,p318632,bird,typical,falcon,falcon_600x600.jpg,0.346153846153846,"{""Q0"":4}",5
,4350,survey-likert,9,9,69424,0.0-9.0,p318632,bird,atypical,heron,heron_600x600.jpg,0.259259259259259,"{""Q0"":2}",3
,3312,survey-likert,10,10,72782,0.0-10.0,p318632,bird,typical,sparrow,sparrow_600x600.jpg,0.703703703703704,"{""Q0"":4}",5
,4086,survey-likert,11,11,76931,0.0-11.0,p318632,bird,typical,goldfinch,goldfinch_600x600.jpg,0.62962962962963,"{""Q0"":4}",5
,5400,survey-likert,12,12,82375,0.0-12.0,p318632,bird,atypical,pelican,pelican_600x600.jpg,0.444444444444444,"{""Q0"":0}",1
,3637,survey-likert,13,13,86069,0.0-13.0,p318632,bird,typical,robin,robin_600x600.jpg,0.730769230769231,"{""Q0"":4}",5
,4158,survey-likert,14,14,90277,0.0-14.0,p318632,bird,atypical,turkey,turkey_600x600.jpg,0.769230769230769,"{""Q0"":2}",3
,5327,survey-likert,15,15,95649,0.0-15.0,p318632,bird,typical,parrot,parrot_600x600.jpg,0.481481481481481,"{""Q0"":2}",3
,3358,survey-likert,16,16,99055,0.0-16.0,p318632,bird,typical,cardinal,cardinal_600x600.jpg,0.407407407407407,"{""Q0"":3}",4
,6406,survey-likert,17,17,105506,0.0-17.0,p318632,bird,atypical,toucan,toucan_600x600.jpg,0.703703703703704,"{""Q0"":0}",1
,6117,survey-likert,18,18,111668,0.0-18.0,p318632,bird,typical,cedarwaxwing,cedarwaxwing_600x600.jpg,0.72,"{""Q0"":4}",5
,9563,survey-likert,19,19,121276,0.0-19.0,p318632,bird,atypical,puffin,puffin_600x600.jpg,0.296296296296296,"{""Q0"":0}",1
,3736,survey-likert,20,20,125064,0.0-20.0,p318632,bird,typical,pigeon,pigeon_600x600.jpg,0.62962962962963,"{""Q0"":4}",5
"[{""page_index"":0,""viewing_time"":3813}]",3814,instructions,21,NA,128925,0.0-21.0,p318632,NA,NA,,NA,NA,,NA
,6615,survey-likert,22,21,135544,0.0-22.0,p318632,dog,typical,goldenretriever,goldenretriever_600x600.jpg,0.909090909090909,"{""Q0"":4}",5
,4021,survey-likert,23,22,139609,0.0-23.0,p318632,dog,typical,germanshepherd,germanshepherd_600x600.jpg,0.727272727272727,"{""Q0"":4}",5
,4913,survey-likert,24,23,144570,0.0-24.0,p318632,dog,atypical,greyhound,greyhound_600x600.jpg,0.666666666666667,"{""Q0"":2}",3
,3777,survey-likert,25,24,148394,0.0-25.0,p318632,dog,atypical,yorkshireterrier,yorkshireterrier_600x600.jpg,0.878787878787879,"{""Q0"":3}",4
,3858,survey-likert,26,25,152313,0.0-26.0,p318632,dog,atypical,sheepdog,sheepdog_600x600.jpg,0.75,"{""Q0"":0}",1
,5888,survey-likert,27,26,158246,0.0-27.0,p318632,dog,atypical,afghanhound,afghanhound_600x600.jpg,0.787878787878788,"{""Q0"":2}",3
,5446,survey-likert,28,27,163738,0.0-28.0,p318632,dog,typical,rottweiler,rottweiler_600x600.jpg,0.647058823529412,"{""Q0"":4}",5
,3293,survey-likert,29,28,167084,0.0-29.0,p318632,dog,atypical,pug,pug_600x600.jpg,0.441176470588235,"{""Q0"":1}",2
,3372,survey-likert,30,29,170502,0.0-30.0,p318632,dog,typical,husky,husky_600x600.jpg,0.454545454545455,"{""Q0"":4}",5
,4427,survey-likert,31,30,174973,0.0-31.0,p318632,dog,typical,foxhound,foxhound_600x600.jpg,0.848484848484849,"{""Q0"":3}",4
,5433,survey-likert,32,31,180452,0.0-32.0,p318632,dog,typical,dalmatian,dalmatian_600x600.jpg,0.606060606060606,"{""Q0"":2}",3
,4295,survey-likert,33,32,184793,0.0-33.0,p318632,dog,atypical,chihuahua,chihuahua_600x600.jpg,0.823529411764706,"{""Q0"":2}",3
,5657,survey-likert,34,33,190502,0.0-34.0,p318632,dog,typical,labrador,labrador_600x600.jpg,0.878787878787879,"{""Q0"":4}",5
,3861,survey-likert,35,34,194420,0.0-35.0,p318632,dog,typical,beagle,beagle_600x600.jpg,0.818181818181818,"{""Q0"":4}",5
,4559,survey-likert,36,35,199027,0.0-36.0,p318632,dog,atypical,saintbernard,saintbernard_600x600.jpg,0.909090909090909,"{""Q0"":2}",3
,3733,survey-likert,37,36,202814,0.0-37.0,p318632,dog,atypical,bassethound,bassethound_600x600.jpg,0.575757575757576,"{""Q0"":1}",2
"[{""page_index"":0,""viewing_time"":9859}]",9860,instructions,0,NA,9875,0.0-0.0,p335069,NA,NA,,NA,NA,,NA
,5771,survey-likert,1,1,15649,0.0-1.0,p335069,cat,atypical,cornishrex,cornishrex_600x600.jpg,0.848484848484849,"{""Q0"":1}",2
,3268,survey-likert,2,2,18918,0.0-2.0,p335069,cat,typical,shorthair_calico,shorthair_calico_600x600.jpg,0.758620689655172,"{""Q0"":4}",5
,4547,survey-likert,3,3,23468,0.0-3.0,p335069,cat,typical,tabby,tabby_600x600.jpg,1,"{""Q0"":4}",5
,1974,survey-likert,4,4,25442,0.0-4.0,p335069,cat,atypical,siamese,siamese_600x600.jpg,0.848484848484849,"{""Q0"":3}",4
,2039,survey-likert,5,5,27482,0.0-5.0,p335069,cat,atypical,exotic,exotic_600x600.jpg,0.878787878787879,"{""Q0"":2}",3
,3136,survey-likert,6,6,30620,0.0-6.0,p335069,cat,typical,bengal,bengal_600x600.jpg,0.833333333333333,"{""Q0"":4}",5
,2215,survey-likert,7,7,32836,0.0-7.0,p335069,cat,typical,arabianmau,arabianmau_600x600.jpg,0.9,"{""Q0"":3}",4
,2452,survey-likert,8,8,35290,0.0-8.0,p335069,cat,atypical,americancurl,americancurl_600x600.jpg,0.9375,"{""Q0"":3}",4
,2182,survey-likert,9,9,37474,0.0-9.0,p335069,cat,typical,burmese,burmese_600x600.jpg,0.931034482758621,"{""Q0"":2}",3
,2273,survey-likert,10,10,39749,0.0-10.0,p335069,cat,atypical,siberian,siberian_600x600.jpg,0.878787878787879,"{""Q0"":1}",2
,2667,survey-likert,11,11,42417,0.0-11.0,p335069,cat,typical,egyptianmau,egyptianmau_600x600.jpg,0.793103448275862,"{""Q0"":2}",3
,3017,survey-likert,12,12,45435,0.0-12.0,p335069,cat,typical,toyger,toyger_600x600.jpg,0.933333333333333,"{""Q0"":3}",4
,2119,survey-likert,13,13,47555,0.0-13.0,p335069,cat,typical,britishshorthair,britishshorthair_600x600.jpg,0.9,"{""Q0"":2}",3
,2587,survey-likert,14,14,50143,0.0-14.0,p335069,cat,typical,chartreux,chartreux_600x600.jpg,0.793103448275862,"{""Q0"":1}",2
,2810,survey-likert,15,15,52955,0.0-15.0,p335069,cat,atypical,oriental,oriental_600x600.jpg,0.909090909090909,"{""Q0"":0}",1
,2055,survey-likert,16,16,55011,0.0-16.0,p335069,cat,atypical,sandcat,sandcat_600x600.jpg,0.823529411764706,"{""Q0"":0}",1
,2671,survey-likert,17,17,57683,0.0-17.0,p335069,cat,atypical,sphynx,sphynx_600x600.jpg,0.588235294117647,"{""Q0"":0}",1
"[{""page_index"":0,""viewing_time"":7256}]",7257,instructions,18,NA,64941,0.0-18.0,p335069,NA,NA,,NA,NA,,NA
,3550,survey-likert,19,18,68492,0.0-19.0,p335069,bird,atypical,puffin,puffin_600x600.jpg,0.296296296296296,"{""Q0"":1}",2
,2582,survey-likert,20,19,71075,0.0-20.0,p335069,bird,atypical,kookaburra,kookaburra_600x600.jpg,0.814814814814815,"{""Q0"":0}",1
,1795,survey-likert,21,20,72871,0.0-21.0,p335069,bird,typical,bluejay,bluejay_600x600.jpg,0.307692307692308,"{""Q0"":4}",5
,3713,survey-likert,22,21,76585,0.0-22.0,p335069,bird,typical,cardinal,cardinal_600x600.jpg,0.407407407407407,"{""Q0"":4}",5
,1881,survey-likert,23,22,78467,0.0-23.0,p335069,bird,atypical,kingfisher,kingfisher_600x600.jpg,0.703703703703704,"{""Q0"":2}",3
,2611,survey-likert,24,23,81079,0.0-24.0,p335069,bird,atypical,owl,owl_600x600.jpg,0.88,"{""Q0"":1}",2
,2003,survey-likert,25,24,83084,0.0-25.0,p335069,bird,typical,goldfinch,goldfinch_600x600.jpg,0.62962962962963,"{""Q0"":3}",4
,2954,survey-likert,26,25,86039,0.0-26.0,p335069,bird,atypical,pelican,pelican_600x600.jpg,0.444444444444444,"{""Q0"":1}",2
,2859,survey-likert,27,26,88900,0.0-27.0,p335069,bird,atypical,turkey,turkey_600x600.jpg,0.769230769230769,"{""Q0"":1}",2
,2647,survey-likert,28,27,91549,0.0-28.0,p335069,bird,atypical,heron,heron_600x600.jpg,0.259259259259259,"{""Q0"":2}",3
,2726,survey-likert,29,28,94275,0.0-29.0,p335069,bird,typical,falcon,falcon_600x600.jpg,0.346153846153846,"{""Q0"":3}",4
,2282,survey-likert,30,29,96559,0.0-30.0,p335069,bird,typical,seagull,seagull_600x600.jpg,0.62962962962963,"{""Q0"":4}",5
,2915,survey-likert,31,30,99476,0.0-31.0,p335069,bird,typical,pigeon,pigeon_600x600.jpg,0.62962962962963,"{""Q0"":4}",5
,2294,survey-likert,32,31,101771,0.0-32.0,p335069,bird,atypical,peacock,peacock_600x600.jpg,0.769230769230769,"{""Q0"":2}",3
,1978,survey-likert,33,32,103751,0.0-33.0,p335069,bird,atypical,toucan,toucan_600x600.jpg,0.703703703703704,"{""Q0"":3}",4
,2387,survey-likert,34,33,106139,0.0-34.0,p335069,bird,typical,cedarwaxwing,cedarwaxwing_600x600.jpg,0.72,"{""Q0"":4}",5
,3407,survey-likert,35,34,109548,0.0-35.0,p335069,bird,atypical,vulture,vulture_600x600.jpg,0.5,"{""Q0"":2}",3
,2325,survey-likert,36,35,111875,0.0-36.0,p335069,bird,typical,robin,robin_600x600.jpg,0.730769230769231,"{""Q0"":3}",4
,2196,survey-likert,37,36,114072,0.0-37.0,p335069,bird,typical,sparrow,sparrow_600x600.jpg,0.703703703703704,"{""Q0"":4}",5
,2091,survey-likert,38,37,116164,0.0-38.0,p335069,bird,typical,parrot,parrot_600x600.jpg,0.481481481481481,"{""Q0"":4}",5
"[{""page_index"":0,""viewing_time"":3271}]",3271,instructions,0,NA,3297,0.0-0.0,p349374,NA,NA,,NA,NA,,NA
,3819,survey-likert,1,1,7118,0.0-1.0,p349374,fish,atypical,seahorse,seahorse_600x600.jpg,0.8,"{""Q0"":1}",2
,1653,survey-likert,2,2,8773,0.0-2.0,p349374,fish,typical,goldfish,goldfish_600x600.jpg,0.515151515151515,"{""Q0"":4}",5
,2087,survey-likert,3,3,10861,0.0-3.0,p349374,fish,atypical,lionfish,lionfish_600x600.jpg,0.785714285714286,"{""Q0"":3}",4
,1783,survey-likert,4,4,12645,0.0-4.0,p349374,fish,atypical,catfish,catfish_600x600.jpg,0.666666666666667,"{""Q0"":3}",4
